MIRICO/SHELL project - Processed LDS file generated on
Thu Jul 13 16:17:21 2017
Time stamp for record start
05/11/2017  13:13:14.0001
Nb of points in the record
         612
Beam position index
       1.0000000
Beam angle (degrees)
      -18.455000
Open Path length (m)
       34.890000
****************** Temporal data record ************************
Elapsedtime_sec Temp_K Press_Pa Humidity_ppmv WindX_m/s WindY_m/s WindZ_m/s Speedofsound_m/s CH4vmr_ppmv CH4vmrerror_ppmv  
      0.00000000       293.63178       98659.225       13755.350       3.8502500       3.6732500    -0.076250000       343.36800       2.8486883     0.017630324
       5.9999675       293.53956       98631.181       13806.179       1.0505000       2.7607500       1.8077500       344.60900       3.0151954     0.022502285
       10.999981       293.50000       98621.646       13820.302       1.8642500       1.4300000      0.85425000       345.75100       2.7444935     0.016052410
       15.999994       293.46013       98619.224       13783.081       4.5750000      0.39350000      0.30725000       345.45300       2.2499312     0.021031484
       20.999967       293.40076       98621.423       13749.737       1.9495000       2.2950000     -0.10525000       345.22500       2.7191712     0.026983644
       25.999980       293.34138       98630.996       13706.288       4.7867500       1.8895000      0.50900000       344.26600       2.5762759     0.018707053
       30.999993       293.30223       98657.574       13649.597       3.5202500       1.3122500      0.20100000       343.84700       2.9826955     0.024199067
       35.999966       293.26185       98664.101       13578.451       6.0952500      0.25075000   0.00050000000       343.72400       2.8487908     0.021959845
       40.999979       293.16400       98668.948       13479.007       5.8147500       1.8265000     -0.13950000       343.48500       3.0009201     0.016961080
       45.999992       293.29228       98652.644       13459.847       4.8167500      0.96250000      0.57675000       344.44400       3.3153338     0.018853499
       50.999965       293.39032       98644.427       13452.802       3.5682500       2.1947500      0.29375000       345.34000       2.3650793     0.016384736
       55.999978       293.58612       98630.372       13517.144       3.4020000      0.43250000       1.1260000       345.49800       2.3392794     0.017751516
       60.999991       293.71864       98626.740       13574.268       3.8175000       1.6942500     0.031500000       344.46200       2.3763868     0.026827520
       65.999964       293.81428       98630.495       13633.252       4.2085000       1.9945000     -0.39075000       344.14100       2.4147816     0.021691357
       70.999977       293.88142       98645.103       13691.487       4.7872500       2.1887500     -0.33850000       344.04300       2.5377546     0.016855809
       75.999990       293.85401       98651.196       13728.912       3.3937500       2.5265000    -0.062250000       344.69900       2.7944048     0.017530135
       80.999963       293.77300       98663.433       13781.896       2.8930000       1.9142500      0.74000000       345.76400       3.3533243     0.023829947
       85.999976       293.56723       98658.483       13750.105       3.8145000       3.7210000    -0.023000000       344.00300       2.6288110     0.018796211
       90.999989       293.43345       98651.790       13706.136       4.0630000       1.3510000     -0.12250000       344.58800       2.5097187     0.019126989
       96.999997       293.27940       98624.881       13588.171       4.9520000       4.9722500      0.19600000       343.18400       3.4765116     0.019602680
       101.99997       293.21525       98620.909       13523.526       5.4137500       2.9597500     -0.34125000       342.67600       3.0621335     0.021116014
       106.99998       293.27241       98628.977       13482.720       4.2035000       1.2037500      0.13650000       344.79200       2.3812935     0.024786548
       112.00000       293.25145       98634.486       13418.926       4.7332500       1.4215000      -1.0105000       344.27500       3.1749803     0.019061039
       116.99997       293.28303       98658.768       13393.687       3.4980000       2.5745000     -0.10425000       344.59100       3.0977978     0.019293289
       121.99998       293.21657       98670.137       13311.466       2.6990000       2.4287500   0.00025000000       344.17600       3.0783719     0.029658656
       127.00000       293.01299       98675.021       13166.184       4.8102500       1.9162500     -0.10175000       345.28500       3.0693917     0.022103385
       131.99997       292.87216       98672.467       13039.944       3.8350000       1.1097500      0.36350000       345.12700       2.5903306     0.019281284
       136.99998       292.59868       98656.453       12824.915       3.8705000      0.87750010       1.6472500       345.71200       3.2812982     0.020898004
       141.99999       292.53721       98648.391       12738.672       4.1667500       1.7657500      0.81775000       345.42400       2.8375857     0.019800979
       146.99997       292.66183       98629.979       12730.018       5.3895000       2.2987500      0.48175000       343.92800       2.8462752     0.015402564
       151.99998       292.74648       98625.938       12735.929       4.3582500       3.1922500     0.056500000       343.86700       2.3958183     0.020950376
       156.99999       293.06240       98638.781       12892.438       2.1257500       1.8882500       1.0012500       345.39900       3.0909242     0.021982548
       161.99997       293.16101       98645.946       12939.812       3.0225000       2.1372500      0.11325000       343.96900       3.3081079     0.019336293
       166.99998       293.09216       98662.134       12931.066       2.7995000      0.37850000     -0.11650000       345.46400       2.7728749     0.017118304
       171.99999       293.05845       98668.685       12928.094       4.6682500       1.5002500      0.43300000       345.52000       2.6632388     0.024288500
       176.99997       292.86518       98670.096       12825.156       2.4007500      0.87400000      0.61575000       345.96800       2.7685277     0.016740765
       181.99998       292.81036       98666.649       12821.588       2.6532500      0.91175000      0.48650000       345.21100       2.2544752     0.026188124
       187.99999       292.92043       98649.222       12922.764       1.5932500      0.38475000     0.096250010       346.41500       2.4259259     0.021498679
       193.00000       292.90315       98641.646       12961.316       2.9835000      0.99850000     -0.88525000       344.73000       2.5371467     0.018092324
       197.99997       292.87628       98628.068       13045.266       4.9382500       1.6000000    -0.058250000       343.09900       2.2498986     0.044525104
       202.99999       292.84928       98627.331       13074.269       5.4252500       2.0942500      0.10750000       343.81000       2.7618654     0.023397619
       208.00000       292.72920       98640.326       13040.008       3.6032500      0.72950010     -0.59300010       343.71100       2.9847019     0.042561006
       212.99997       292.66708       98647.855       13014.469       3.8137500       2.6412500     -0.66375010       343.52600       3.7037416     0.015538166
       217.99998       292.63668       98666.429       12960.897       2.4605000      0.20000000      0.46100000       345.88300       3.5960360     0.042004281
       223.00000       292.64434       98669.271       12941.883       2.9655000      0.79500000     -0.34725000       345.62100       2.8615453     0.025702557
       227.99997       292.61729       98659.431       12876.823       3.2332500      0.85375010      0.62425010       345.61200       3.8081469     0.022687769
       232.99998       292.70876       98653.687       12917.830       4.3852500     -0.19575000     0.089500000       344.35000       3.3702080     0.027942767
       238.00000       292.96746       98636.598       13063.774       3.9692500      0.73950000      -1.1372500       343.49600       2.9782933     0.024306465
       242.99997       293.11243       98631.144       13164.745       3.7302500      0.22725000     -0.20125000       344.66900       2.7634394     0.022853455
       247.99998       293.39359       98630.494       13365.229       6.7540000      0.48200000     -0.52400000       345.08400       2.8875034     0.016512337
       253.00000       293.41027       98635.047       13444.231       2.9627500       1.4385000     -0.20725000       345.62200       3.2341094     0.013720664
       257.99997       293.20423       98650.956       13442.557       5.1860000       1.7122500     0.097250010       343.93200       3.8275580     0.035837895
       262.99998       293.05826       98658.541       13430.143       3.2570000       2.0990000     -0.47975000       343.28700       4.1731021     0.030792429
       267.99999       292.71200       98672.743       13328.427       2.2492500       2.1852500     -0.29850000       345.94900       2.9366979     0.029526145
       272.99997       292.55332       98673.565       13281.464       2.4595000       2.2042500      0.95275000       346.23500       2.5215068     0.018005101
       278.99998       292.47895       98658.729       13238.506       2.2995000       2.1907500      0.25825000       345.25600       2.4517889     0.017488056
       283.99999       292.47056       98651.124       13205.878       2.5495000       3.7565000      0.26125000       345.05800       2.6786771     0.046376491
       289.00000       292.56157       98632.841       13195.224      0.87950000       3.1675000      0.16450000       345.71500       2.9927362     0.019898439
       293.99997       292.63348       98631.508       13175.136       3.4632500       3.3612500      -1.0387500       342.76000       2.5710059     0.020818322
       298.99999       292.74529       98641.425       13139.842       3.9625000       4.3280000     -0.50400000       343.21200       2.5258681     0.031965891
       304.00000       292.86207       98647.716       13125.548       3.3955000       2.5790000      0.24925000       344.13500       2.3327699     0.026353089
       308.99997       293.00090       98664.097       13109.809       2.6112500       2.0955000    -0.098500010       345.66200       2.4247424     0.022877805
       313.99999       293.12145       98670.308       13128.852       2.8102500       2.9720000      0.68575000       344.40200       2.3474145     0.026964419
       319.00000       293.28435       98673.691       13195.274       3.6820000       2.2222500       1.6745000       344.71200       2.9296172     0.031945931
       323.99997       293.36666       98670.308       13212.708       1.7680000       1.1880000      0.31300000       345.46500       2.6372775     0.045105965
       328.99999       293.39817       98658.785       13209.204       3.3667500      0.64550000      0.52075000       346.02300       2.8061409     0.034751024
       334.00000       293.42526       98651.190       13254.428       4.0525000       1.6362500     -0.14775000       344.86900       2.6170884     0.032330174
       338.99997       293.43468       98632.807       13301.342       2.1660000       1.7570000      0.74000000       344.99000       3.2481037     0.026906889
       343.99998       293.38502       98631.643       13340.632       1.8435000       3.2675000      0.47200000       345.15800       4.0577310     0.014191425
       349.00000       293.28486       98642.018       13454.149       4.3937500       2.8277500      -1.2197500       342.75100       3.4624119     0.027962271
       353.99997       293.20827       98648.326       13463.567       2.8727500       2.3232500     -0.21750000       344.16200       2.8651128     0.041099053
       358.99998       293.10267       98665.398       13406.075       4.1322500       1.3515000   -0.0055000000       343.80500       2.7397518     0.035652467
       364.99999       292.94959       98670.196       13316.942       4.8972500       1.9927500     -0.38925000       343.31200       2.2792969     0.017852978
       369.99996       292.82933       98667.800       13190.587       3.0562500       1.6622500     -0.58800000       344.51600       2.3335995     0.034349970
       374.99998       292.70127       98663.160       13094.157       3.0810000       1.8962500     -0.90650000       344.24700       2.1474938     0.031575503
       379.99999       292.54171       98651.614       12982.425       5.3395000       3.6712500     -0.54550000       343.14300       2.1714747     0.025768246
       384.99996       292.36438       98644.621       12876.744       5.6622500       2.6385000      -1.6705000       344.43600       3.0082344     0.024943143
       389.99998       292.15961       98634.437       12768.574       5.4590000       1.3407500      0.82950000       344.27700       3.2885383     0.018774044
       394.99999       292.05527       98632.130       12699.798       1.8787500       1.8887500       1.5337500       346.47400       2.7596293     0.049126846
       399.99996       291.88915       98631.960       12610.590       4.0507500       3.1610000     -0.94275000       343.58400       2.2981328     0.027884047
       404.99998       291.94624       98638.472       12617.104       4.3500000       2.2782500      0.27700000       344.30300       3.3839351     0.013699868
       409.99999       292.22808       98654.525       12711.582       5.0215000       2.5340000     -0.39575000       342.74200       2.7227501     0.014894362
       414.99996       292.35810       98661.641       12758.915       4.4152500       1.7030000     0.012000000       343.80200       3.1704878     0.028707129
       419.99997       292.57017       98673.934       12840.802       3.8955000       2.3465000     -0.11025000       343.78200       2.8336015     0.015352234
       424.99999       292.62734       98671.715       12894.017       2.3202500       3.8372500       1.1927500       344.14100       2.4920401     0.021245195
       430.00000       292.54835       98657.831       12915.542       3.2402500       1.5555000      0.28975000       345.06500       2.5164346     0.020638453
       434.99997       292.55809       98649.899       12968.746       3.6027500       1.0517500       1.0847500       345.47300       2.5081645     0.021007857
       439.99999       292.56059       98632.263       13045.214       2.2610000       2.0680000      0.13900000       346.68400       2.1608517     0.022931676
       445.00000       292.53144       98632.607       13091.743       4.6072500       3.2790000      0.32425000       344.68600       1.9541007     0.031421662
       449.99997       292.52769       98643.114       13151.347       5.1672500       2.4832500     -0.25750000       342.97300       2.8053671     0.027329900
       455.99998       292.33843       98658.879       13100.295       4.7775000       2.3755000     0.088750000       344.75000       3.1723023     0.032042069
       460.99999       292.27451       98667.125       13092.846       3.8397500       3.9902500     -0.67200010       344.26800       3.0384509     0.041340513
       465.99997       292.30498       98673.299       13098.563       2.7997500       1.5045000      0.24525000       344.84900       3.0055680     0.065100004
       470.99998       292.29366       98672.805       13083.298       1.5350000       2.6112500      0.30425000       345.68900       2.9271523     0.024187930
       475.99999       292.29463       98667.381       13070.347       2.8812500       1.1977500     -0.13575000       344.50000       3.0219787     0.028071751
       480.99997       292.37061       98656.415       13098.991       3.2875000       1.5392500     -0.18075000       345.22100       2.6759683     0.025024955
       485.99998       292.34624       98648.219       13054.355       3.6822500       1.2525000     -0.62550000       344.73100       2.7432274     0.031975390
       490.99999       292.25052       98632.987       12956.681       3.7577500       2.7367500     -0.58000000       344.98100       2.8286868     0.028423939
       495.99997       292.16973       98630.392       12849.779       3.3712500       1.0920000     -0.23800000       345.72500       2.3922253     0.030493737
       500.99998       292.13629       98632.802       12808.752       5.3692500       2.4847500     -0.75175010       343.84200       3.1056819     0.020056284
       505.99999       292.11533       98647.762       12811.388       4.3005000       2.2817500    0.0060000000       343.61200       3.0670218     0.014036962
       510.99996       292.13180       98655.747       12832.473       4.0602500       2.7010000     -0.73750000       343.75900       3.0956017     0.023971107
       515.99998       292.18520       98662.483       12886.608       5.4632500       1.1030000      0.11225000       344.54300       3.0159826     0.017197312
       520.99999       292.31167       98672.032       13011.365       3.4907500      0.55375000       1.2245000       345.61200       2.4518814     0.023838653
       525.99996       292.33925       98674.540       13059.595       4.4290000       1.6412500      0.17950000       344.19600       3.2104425     0.024445276
       530.99998       292.36196       98671.010       13090.147       2.3850000      0.88650010      0.38800000       345.25200       2.6880455     0.030316878
       535.99999       292.31488       98671.586       13147.704       5.1155000       1.3282500     -0.20125000       344.29200       3.0496414     0.024219967
       540.99996       292.29339       98666.932       13189.702       2.4422500      0.71925000      0.21725000       344.65100       3.0993980     0.019626267
       546.99997       292.32813       98646.708       13301.300       4.5360000       2.7190000     -0.75475000       343.57900       2.7352890     0.033811256
       551.99998       292.30538       98642.302       13318.919       4.6320000       3.6357500     -0.38575000       342.99200       2.7649388     0.029844993
       557.00000       292.21766       98641.853       13235.004       3.0100000      0.49775000       1.1877500       343.97900       2.6553684     0.025575904
       561.99997       292.18900       98643.274       13205.498       3.6925000       1.6810000      0.96200010       344.43700       2.3482636     0.022386946
       566.99998       292.16717       98662.172       13174.593       3.1387500       1.4020000       1.6360000       344.63800       2.2441178     0.026856056
       572.00000       292.13834       98668.662       13123.381       4.4812500       2.8210000     -0.25175000       343.28100       2.5667834     0.019702453
       576.99997       292.14175       98668.815       13078.569       4.3892500       2.2030000    -0.090000000       342.88300       2.5210884     0.018460061
       581.99998       292.15197       98666.512       13047.989       3.7550000       1.6440000    0.0072500000       344.06000       2.5213830     0.024240592
       586.99999       292.15880       98655.925       12998.258       2.2472500       1.7155000      0.38325000       343.69300       2.8266834     0.022342856
       591.99997       292.14907       98648.942       12950.534       2.8595000       2.0667500     -0.46950000       344.03700       2.6057419     0.022854016
       596.99998       292.15615       98637.392       12917.330       2.8460000       2.1420000     -0.25375000       344.01300       2.6686982     0.024911518
       601.99999       292.15485       98632.856       12902.724       1.8770000       1.3932500     -0.79425000       343.43800       2.7856067     0.025420136
       606.99997       292.12437       98630.095       12882.585       2.7262500       1.7697500     -0.18375000       343.80200       2.6182170     0.020526391
       611.99998       292.09445       98633.613       12870.761       3.6627500       1.5275000     -0.84725000       343.40800       2.6667320     0.015977663
       616.99999       292.05208       98649.420       12879.162       3.6967500       1.0965000     -0.28750000       343.88900       3.4147126     0.023256746
       621.99997       292.04354       98657.330       12905.438       4.9575000       1.7195000     -0.37325000       343.20000       2.7538063     0.021577041
       626.99998       292.04414       98671.604       12945.063       4.3047500       2.8342500     0.079000000       343.11900       2.9031867     0.019837710
       631.99999       292.04541       98673.921       12974.972       4.0050000       2.2475000     -0.40200000       342.77500       3.0321418     0.027315145
       638.00000       292.09535       98660.143       13033.717       3.0305000       2.2762500     0.021250000       343.59600       3.7337888     0.029338452
       642.99997       292.11128       98652.826       13079.003       3.7297500       4.0270000     -0.85250000       343.23300       4.2007358     0.022040115
       647.99999       292.11335       98636.701       13128.811       2.4120000       1.7392500      0.62675010       343.94600       2.5123736     0.022188257
       653.00000       292.09996       98631.226       13141.656       3.2707500       1.6140000     -0.52800000       343.47500       2.7190243     0.024219958
       657.99997       292.06324       98631.721       13142.526       2.9837500       1.7132500      0.52575000       344.04500       2.4379033     0.026074133
       662.99998       292.04330       98634.882       13139.342       2.5242500       2.3330000     -0.36125000       343.97800       2.2182476     0.027782723
       668.00000       292.01872       98646.085       13099.225       3.5152500       3.3350000      0.67875000       343.94200       3.3622535     0.024536264
       672.99997       291.98867       98653.137       13066.538       3.6722500       3.3540000     -0.47750000       343.40700       2.6345578     0.024857229
       677.99998       291.96142       98664.448       13042.313       3.0682500      0.85375010      0.33800000       343.74700       2.2500187     0.022752677
       683.00000       291.94130       98668.405       13014.524       4.0440000       2.1650000     -0.18150000       343.34600       3.1171793     0.023036431
       687.99997       291.90514       98668.553       12962.604       4.0252500       3.8125000     -0.56375000       343.03100       2.6939230     0.020839459
       692.99998       291.88915       98665.414       12934.298       3.6295000       3.2450000     -0.25800000       342.83800       2.7589565     0.015976683
       698.00000       291.88672       98654.803       12899.207       3.1507500       2.4345000     -0.15425000       343.67000       3.1491833     0.021939715
       702.99997       291.90070       98647.843       12912.380       3.6795000       2.5617500     -0.24200000       343.32200       3.2848498     0.022292084
       707.99998       291.93837       98633.701       12964.097       3.0110000       3.2027500    -0.085000000       343.08000       2.3743384     0.020417745
       713.00000       291.95855       98632.622       13007.843       2.8072500       2.5102500      0.50100000       343.67700       3.9925701     0.021594417
       717.99997       291.99557       98641.012       13092.915       2.6350000       2.8665000     -0.35650000       343.44100       2.5767146     0.018217450
       722.99998       292.01212       98646.716       13154.484       3.3207500       2.9312500     0.072500010       343.71900       2.4609595     0.020764906
       728.99999       292.00030       98664.506       13200.144       3.2280000       3.4417500     0.027250000       343.30900       2.4809888     0.018706033
       734.00000       292.00042       98670.639       13256.196       1.4970000      0.52125000       1.2070000       343.66200       2.6072937     0.019800393
       738.99997       291.98869       98671.303       13334.123       2.4247500       2.8275000     -0.59225000       342.88300       2.3375295     0.017703906
       743.99999       292.00465       98671.051       13379.308       2.2682500       3.5782500     -0.98250010       343.07400       2.1629535     0.017236335
       749.00000       292.05316       98669.755       13434.985       2.0097500       3.0087500     -0.65000000       343.26900       2.3204954     0.019701252
       753.99997       292.05702       98662.845       13440.405       1.0227500       3.6835000      0.47400000       343.41400       2.9789068     0.019526152
       758.99999       292.06818       98647.810       13407.785       1.7825000       2.8545000    -0.029500000       343.83000       2.4426185     0.020464588
       764.00000       292.04594       98640.390       13364.741      0.43475000       1.6445000       1.4750000       343.68000       2.0935878     0.017463178
       768.99997       291.96922       98626.984       13279.128       1.4762500       3.9420000     0.090500000       343.60300       2.3561870     0.017585490
       773.99999       291.91923       98627.602       13216.718       1.1997500       4.0630000     -0.43050000       343.59300       2.3732144     0.017307919
       779.00000       291.85829       98641.936       13138.921       1.8402500       2.9587500     -0.40800000       343.73600       2.6937136     0.018973502
       783.99997       291.82452       98649.575       13088.972       4.3845000       6.0405000     -0.80200000       343.10000       2.6582349     0.019263186
       788.99999       291.80120       98664.233       13056.915       5.0030000       5.0187500     0.070000000       343.08000       2.9804032     0.018797587
       794.00000       291.78771       98670.323       13025.541       5.1452500       5.0710000     -0.71025000       343.20500       2.4669614     0.017048406
       798.99997       291.80000       98673.628       12999.792       3.8240000       4.2105000     -0.80975000       343.10500       2.4280747     0.020145616
       803.99998       291.80011       98670.136       12992.546       4.9247500       3.2967500      -1.1062500       343.21700       2.5715461     0.019139485
       809.00000       291.81138       98658.482       12991.591       5.0220000       5.1015000     -0.48850000       343.02900       3.1043872     0.018928867
       813.99997       291.79535       98650.850       13007.500       3.4137500       3.8945000     -0.76550000       342.85900       2.8930737     0.017593884
       819.99998       291.75401       98634.689       13061.829       3.5840000       3.2792500     -0.34675000       343.15900       2.8661345     0.017312464
       824.99999       291.73422       98629.351       13086.199       3.1395000       4.1157500      0.38250000       343.49600       2.5318759     0.017224194
       829.99996       291.68788       98627.510       13102.990       2.8435000       2.5145000      0.22500000       343.47200       2.6278405     0.017527624
       834.99998       291.69497       98632.007       13138.466       2.8512500       2.6432500     -0.15700000       343.67400       2.6294309     0.020274967
       839.99999       291.74573       98643.171       13177.235       3.4737500       3.6825000     -0.17900000       343.34100       3.0609061     0.015997648
       844.99996       291.76621       98651.256       13213.238       3.3457500       1.1812500      0.24075000       343.68700       2.2849757     0.017618873
       849.99998       291.80239       98665.685       13269.495       3.8272500       4.3570000     -0.49925000       342.99100       2.9168257     0.017334907
       854.99999       291.81380       98671.133       13296.676       4.1200000       5.1767500     -0.70375000       342.77600       3.5584457     0.018669055
       859.99996       291.78178       98673.260       13294.056       5.2285000       4.1442500       1.1107500       343.47300       2.3826578     0.017771185
       864.99998       291.81895       98668.842       13323.143       3.1800000       3.8165000     -0.18950000       343.16800       2.4216570     0.018894145
       869.99999       291.89230       98657.500       13365.767       3.2877500       3.7835000      0.13725000       343.51800       2.3845123     0.017444161
       875.00000       291.93218       98649.718       13385.564       3.8027500       1.1187500       1.7705000       343.87400       2.8133950     0.018526728
       879.99997       292.00681       98634.054       13418.783       5.5962500       3.4850000     -0.17025000       343.02100       3.0036667     0.018277514
       884.99999       292.02912       98630.638       13417.468       4.9842500       5.0722500       1.3067500       343.31200       2.4139019     0.017004729
       890.00000       291.99954       98632.875       13380.617       4.4857500       5.6730000      0.45175000       343.28700       3.1394686     0.019065019
       894.99997       291.99936       98637.564       13359.577       3.1452500       3.6885000      0.13800000       343.24600       2.7651682     0.021590742
       899.99999       291.99083       98649.944       13320.378       4.4970000       3.4560000       1.2137500       343.28500       2.3244846     0.018336579
       905.99999       292.03027       98655.959       13340.306       4.0265000       2.7932500     -0.40675000       343.42300       2.3159237     0.018278196
       910.99997       292.05004       98661.067       13344.785       3.5467500       1.9270000      0.16775000       343.45800       2.7794514     0.018453752
       915.99998       292.06987       98667.828       13362.128       4.6692500       2.6067500     -0.89000000       343.42500       3.2402843     0.018074030
       920.99999       292.09949       98667.245       13378.833       3.1027500       4.0305000     0.087500010       343.59800       2.4801814     0.018911767
       925.99997       292.12912       98662.967       13390.437       3.3175000       3.9367500     -0.47525000       343.38000       2.6910956     0.019374674
       930.99998       292.15569       98656.903       13392.666       3.2035000       4.9787500     -0.66950010       343.26100       2.9137087     0.017381584
       935.99999       292.15450       98649.596       13371.574       4.4620000       3.4727500     -0.87725000       342.80500       2.5721410     0.016399451
       940.99997       292.15644       98633.724       13346.051       4.7890000       2.5215000      -1.6940000       343.25200       2.8806709     0.016975564
       945.99998       292.12966       98627.279       13310.965       1.7075000       3.4767500     -0.51050000       343.37000       2.3851121     0.016481015
       950.99999       292.09939       98627.636       13275.608       2.1360000       1.9992500     0.011500000       343.52700       2.0871262     0.016377215
       955.99996       292.08479       98637.984       13261.527       1.2117500       1.4765000      0.12850000       343.78800       2.0508248     0.017044850
       960.99998       292.05617       98644.861       13238.587       3.8797500       5.6657510     -0.91075000       343.03800       2.0348945     0.015972690
       965.99999       292.01521       98652.961       13207.982       1.6732500       3.6080000     -0.28500000       343.15000       2.0756291     0.018759014
       970.99996       291.93205       98667.156       13151.839       1.5020000       2.8460000     -0.87600000       343.19300       2.0442042     0.018822329
       975.99998       291.94669       98671.728       13143.634       1.4937500       2.0700000     -0.30000000       343.60800       2.0644916     0.017242386
       980.99999       291.98784       98671.506       13150.525       1.9385000       3.9465000     -0.43200000       343.16700       2.2040721     0.017917366
       985.99996       292.07139       98671.644       13130.437       1.5570000       3.0050000    -0.081000000       343.52100       2.0384748     0.015698058
       990.99998       292.15186       98667.015       13173.437       3.4492500       2.9962500     -0.65725000       343.11800       2.1957962     0.015579216
       996.99998       292.27324       98650.948       13312.822       2.6375000       2.6632500      0.19075000       343.47000       2.1021986     0.016072680
       1002.0000       292.32009       98643.107       13380.490       3.7107500       4.2737500     -0.41875000       343.00600       2.3626663     0.015990733
       1007.0000       292.36097       98628.970       13474.508       2.1460000       2.7807500     -0.51350000       343.19100       2.1187606     0.015408511
       1012.0000       292.36754       98626.697       13550.281       2.9822500       4.9605000      0.29575000       343.26600       2.2153233     0.016336269
       1017.0000       292.29113       98638.661       13581.366       4.0455000       5.2850000    -0.050000000       343.02900       2.6655260     0.016261156
       1022.0000       292.24096       98645.756       13593.702       3.0675000       4.9992500     -0.69975000       343.55200       2.7832696     0.015206600
       1027.0000       292.16208       98660.562       13593.137       1.7985000       2.6987500      0.83550010       343.46000       2.3793332     0.015845888
       1032.0000       292.13421       98668.274       13606.814       3.1882500       2.5170000    -0.098750000       343.66900       2.3772747     0.016809615
       1037.0000       292.15855       98669.268       13612.485       1.8075000       3.5187500      0.65375000       343.54500       2.4097569     0.016792677
       1042.0000       292.14870       98671.169       13589.274       2.9495000       1.8937500  -0.00025000000       343.75400       2.3200101     0.016784859
       1047.0000       292.17010       98674.561       13585.046       3.5567500       4.0705000     -0.57350000       343.17500       2.8794890     0.015756652
       1052.0000       292.15739       98671.195       13548.748       2.4715000       3.8360000     -0.16875000       343.22200       2.5856822     0.015675246
       1057.0000       292.07634       98661.929       13436.083       2.2830000       2.0255000       1.8102500       343.44900       2.7304895     0.016198600
       1062.0000       292.03771       98654.823       13363.342       3.9962500       3.5515000       1.5547500       343.34800       2.7123104     0.015064913
       1067.0000       292.02449       98638.544       13297.441       3.3730000       1.4862500     -0.90000000       343.40100       2.7098479     0.014494777
       1072.0000       291.99443       98632.051       13247.250       2.0850000       2.6115000    -0.077500000       343.45200       2.3165768     0.014820954
       1077.0000       291.95177       98632.021       13198.190       3.2285000       2.1397500      0.22800000       343.24000       3.2236848     0.018265456
       1082.0000       291.94284       98634.434       13184.937       4.6857500       2.6920000      0.24250000       343.50700       2.9142293     0.015655965
       1088.0000       291.95594       98645.991       13224.517       3.0027500       2.8102500     -0.41750000       343.17100       2.3788939     0.016583703
       1093.0000       291.94614       98652.866       13233.297      0.92375000       3.1830000      0.13650000       343.38700       2.4196621     0.016893027
       1098.0000       291.96940       98663.052       13250.833       4.1020000       3.8252500      -1.1537500       343.29800       2.4779307     0.016247128
       1103.0000       291.95180       98668.247       13269.409       2.3412500       4.3515000      0.20225000       343.05100       2.3650942     0.015802772
       1108.0000       291.88151       98671.197       13284.813       2.6492500       4.8810000     -0.44450000       343.12300       2.3332957     0.019865297
       1113.0000       291.83135       98671.449       13278.229       3.7317500       4.6820000     -0.71275000       343.04500       3.2107069     0.016099423
       1118.0000       291.78012       98665.304       13281.043       3.9537500       4.3972500     -0.69000010       342.93000       2.5519160     0.019627498
       1123.0000       291.72977       98664.720       13259.916      0.80925010       3.1347500      0.22600000       343.40300       2.9266390     0.017103533
       1128.0000       291.66629       98664.677       13181.414       2.4490000       3.4707500     -0.13675000       343.17700       2.4812076     0.016735622
       1133.0000       291.62978       98665.082       13147.199       3.9002500       2.5755000     -0.50800000       342.98200       2.8371657     0.017487817
       1138.0000       291.61734       98674.988       13149.502       2.7655000       3.5950000      0.55650000       342.91700       2.6843552     0.017550975
       1143.0000       291.58736       98671.121       13112.961       1.8452500       3.2610000      0.35775000       343.11500       2.8116056     0.016468286
       1148.0000       291.56268       98651.237       13068.779       1.8852500       3.8197500     -0.95200000       343.21600       3.0673984     0.016812210
       1153.0000       291.54262       98647.321       13028.850       3.3660000       4.2065000      0.19000000       343.00900       2.9665898     0.017728053
       1158.0000       291.49308       98642.613       12936.502       4.3592500       4.4627500     -0.15175000       342.75000       2.0706628     0.016568833
       1163.0000       291.49099       98643.527       12914.591       3.3512500       3.4722500      -1.0795000       343.03900       2.1030420     0.016838686
       1168.0000       291.53914       98662.947       12944.680       2.5182500       3.9907500     -0.18700000       342.77700       2.5008722     0.017183204
       1173.0000       291.55938       98669.930       12966.635       2.2842500       2.3582500      0.24100000       343.24400       2.3012825     0.017221464
       1179.0000       291.61012       98671.363       13035.107       2.9492500      0.89950010    -0.016000000       343.19800       2.9417141     0.019536253
       1184.0000       291.60726       98671.087       13070.412       1.2430000       3.7632500      0.68325000       342.97200       2.7773853     0.017791042
       1189.0000       291.54653       98669.611       13085.607       2.8075000       2.7197500     -0.66450010       343.27700       2.4468481     0.018711670
       1194.0000       291.54258       98662.855       13125.562       3.1690000       4.8495000     -0.69250010       343.31600       3.0689990     0.017675035
       1199.0000       291.54206       98648.148       13186.618       2.3555000       1.9492500      0.70675000       343.56700       3.0610787     0.016390042
       1204.0000       291.54859       98640.799       13216.388       3.1350000       2.0812500      0.32750000       343.33600       3.1054928     0.020126327
       1209.0000       291.59866       98627.362       13261.416       1.0732500       3.3622500      0.64650010       343.35700       3.0464273     0.016118869
       1214.0000       291.61251       98628.107       13260.264       3.4320000       4.5387500     -0.10350000       343.23000       2.6895722     0.019037086
       1219.0000       291.59992       98643.167       13208.106       1.7575000       2.7662500     -0.84900000       343.31300       2.9264767     0.017578430
       1224.0000       291.59981       98649.179       13175.716       1.8097500       3.5440000    -0.022750000       342.73800       2.3587023     0.017113079
       1229.0000       291.61078       98658.905       13132.026       3.5542500       4.5252500     -0.35450000       342.70600       2.3730744     0.015593641
       1234.0000       291.59443       98664.574       13088.878       3.6410000       4.2402500      0.43050000       342.84700       2.6360379     0.017220798
       1239.0000       291.55851       98665.698       13040.148       1.9657500       2.4605000      0.37450000       343.10300       2.7582091     0.016379858
       1244.0000       291.53828       98666.122       13006.331       4.3160000       4.1980000     -0.66900000       343.01200       3.1174030     0.017105034
       1249.0000       291.50129       98665.963       12965.507       4.5527500       4.1442500     -0.95525000       342.97400       2.7687573     0.018812853
       1254.0000       291.48759       98665.384       12950.481       3.0430000       3.1162500      0.33125000       343.31200       3.4565365     0.017688598
       1259.0000       291.51103       98663.473       12960.594       2.2132500       1.2850000      0.33625000       343.63400       3.0324097     0.016409942
       1264.0000       291.49489       98657.188       12967.247       4.1002500       2.7970000      -1.0492500       343.03200       2.7105025     0.017461290
       1270.0000       291.45404       98645.634       12989.994       2.7957500       3.7057500      0.54050000       343.08600       3.1399634     0.017623256
       1275.0000       291.43431       98641.575       13002.446       2.5422500       2.5425000     -0.53900000       343.01400       2.4717241     0.015900974
       1280.0000       291.37947       98632.184       13003.303       2.9032500       4.1475000   -0.0015000000       342.84300       2.4851641     0.016353689
       1285.0000       291.40540       98634.465       13041.102       2.2247500       1.4472500    -0.036250000       343.35000       2.6845258     0.022509385
       1290.0000       291.49928       98648.693       13101.604       3.1307500       3.2767500     -0.72550000       343.11000       3.2056896     0.031920639
       1295.0000       291.52056       98655.740       13137.491       2.0602500       3.5575000     -0.99125000       343.01900       2.5967208     0.016475119
       1300.0000       291.56836       98665.395       13201.292       1.6350000       3.4762500     -0.42725000       343.08900       3.1995786     0.024438283
       1305.0000       291.55245       98669.687       13213.346       1.6905000       2.4960000      0.56100000       343.16700       2.1965204     0.024300914
       1310.0000       291.44082       98670.561       13172.386       2.2780000       2.5902500      0.14875000       343.17200       2.7896953     0.019094800
       1315.0000       291.42792       98671.703       13172.034       2.2052500       3.0192500     -0.64550000       343.22000       2.0625551     0.016274759
       1320.0000       291.44299       98671.323       13177.695       1.7795000       2.9145000     -0.37100000       343.24300       2.1766536     0.021670055
       1325.0000       291.45155       98669.512       13169.146       1.3770000       2.3882500     0.093000000       343.15300       2.2531654     0.022583298
       1330.0000       291.48463       98668.633       13159.179       1.7955000       2.7910000     0.025000000       343.27100       2.0257644     0.018795819
       1335.0000       291.53382       98660.926       13166.480       2.0202500       2.0322500     -0.22350000       343.15500       2.2036091     0.027920461
       1340.0000       291.59237       98646.162       13168.865       2.6495000       3.0087500     0.052250000       343.18300       2.5269627     0.022473235
       1345.0000       291.63260       98639.006       13174.051       2.5272500       3.0110000      0.10675000       343.10100       2.3297205     0.021193788
       1350.0000       291.70709       98626.487       13202.276       3.1707500       2.7820000     -0.46050000       343.30900       2.1229701     0.015645586
       1355.0000       291.72976       98628.686       13214.782       1.5872500       4.5132500      0.34550000       343.24500       2.2100613     0.017173744
       1361.0000       291.70013       98644.902       13207.301       2.7022500       2.7312500      0.13825000       343.47400       2.5035308     0.016288573
       1366.0000       291.70012       98658.717       13238.363       3.8850000       3.9725000     -0.82900010       343.32900       2.6361913     0.018807608
       1371.0000       291.70024       98667.022       13255.544       1.5195000       3.4382500      0.28525000       343.26900       2.3962044     0.025720103
       1376.0000       291.70035       98671.633       13267.756       1.0000000       4.2832500      -1.4615000       342.91400       2.7133334     0.015348940
       1381.0000       291.69326       98670.876       13272.975       3.1910000       3.8525000     -0.75925000       342.96100       2.6182565     0.017591675
       1386.0000       291.71479       98671.725       13290.064       3.7675000       4.4740000     -0.30275000       342.65400       3.3543114     0.016323822
       1391.0000       291.75022       98671.021       13306.989       2.6302500       1.8722500      0.36075000       343.01000       3.1122560     0.018236697
       1396.0000       291.78499       98670.183       13317.178       5.1880000       3.2182500      0.32400000       342.85000       2.4601181     0.016139210
       1401.0000       291.80661       98666.451       13328.508       3.4385000       2.8727500      0.48275000       343.23100       2.8105089     0.016811343
       1406.0000       291.83000       98657.303       13351.462       5.2807500       3.7625000     -0.13825000       342.80900       2.7195910     0.019698563
       1411.0000       291.81249       98650.370       13337.336       3.1882500       1.3645000      0.67000000       343.33200       3.0055427     0.015509381
       1416.0000       291.77035       98643.437       13305.167       2.0320000       2.8707500      0.46525000       343.27700       3.0754416     0.014184046
       1421.0000       291.70875       98633.692       13264.567       2.7897500       3.1732500    -0.070500000       342.76800       3.2415859     0.019809536
       1426.0000       291.64674       98632.201       13219.336       1.9545000       1.0467500      0.64925000       343.46000       3.2014711     0.013665905
       1431.0000       291.53739       98633.637       13137.233       3.3135000       3.7195000      -1.0602500       343.14500       3.0065355     0.015501504
       1436.0000       291.52942       98643.309       13098.363       2.5885000       1.4512500      0.36900000       343.39200       2.6316007     0.019316046
       1441.0000       291.49929       98650.271       13063.098       3.4715000       3.4957500     -0.20625000       343.04500       2.5141751     0.014113731
       1446.0000       291.45502       98657.470       12996.620       3.5150000       2.0440000     0.053500000       343.15400       2.6673904     0.015737095
       1452.0000       291.44345       98667.043       12986.092       3.2152500       1.1785000   -0.0092500000       342.80500       2.4817328     0.015700113
       1457.0000       291.44379       98679.003       13037.603       3.3707500       2.6790000      0.15300000       342.98400       2.2425563     0.013352697
       1462.0000       291.44488       98682.638       13065.969       2.8290000       2.9087500     -0.33275000       342.90000       2.5831911     0.015448786
       1467.0000       291.46100       98683.182       13108.778       3.4667500       2.5862500     0.039750000       343.15600       2.6514840     0.015998284
       1472.0000       291.50238       98681.815       13169.262      0.60500000      0.84150000      0.89950010       343.71800       2.1089163     0.012760010
       1477.0000       291.55382       98671.896       13224.169       2.1602500       1.4620000      0.28925000       343.04900       2.3738731     0.015134423
       1482.0000       291.60540       98663.896       13286.721       4.2980000       2.6597500     -0.20050000       342.97800       3.7089667     0.017028289
       1487.0000       291.71566       98655.638       13405.780       5.0252500       3.0552500     -0.19375000       342.91300       2.9503447     0.015837093
       1492.0000       291.77426       98648.590       13479.174       3.9405000       3.0237500     -0.86300000       342.96200       2.8390715     0.014917561
       1497.0000       291.80460       98637.323       13538.346       2.9017500       2.3555000       1.0190000       343.19800       3.0941366     0.021435302
       1502.0000       291.81191       98632.728       13559.976       3.2577500       1.8465000      0.52325000       343.22900       2.7500286     0.014805962
       1507.0000       291.78103       98631.585       13547.599       4.7320000       3.3167500    -0.070000000       342.97700       2.8310767     0.016051880
       1512.0000       291.74941       98634.008       13516.290       3.7722500       2.7132500     -0.36175000       343.18800       3.1677566     0.014820867
       1517.0000       291.64844       98644.765       13400.871       2.9087500       2.6787500    -0.070500000       343.01300       2.9818093     0.018008490
       1522.0000       291.63261       98651.838       13361.358       3.3785000       1.6352500     0.011000000       343.05600       3.3595692     0.017193164
       1527.0000       291.69296       98659.029       13376.917       3.0745000      0.97425000      0.56475000       343.37500       2.8530466     0.015463723
       1532.0000       291.70321       98667.057       13348.493       4.0307500      0.90575000     -0.11300000       343.24300       2.8881013     0.015343201
       1538.0000       291.75262       98679.956       13331.218       3.0427500       2.1550000      0.31875000       343.13200       2.6584453     0.016338684
       1543.0000       291.76492       98682.736       13312.810       2.7760000       1.8560000     -0.49750000       343.17600       3.5742528     0.016986934
       1548.0000       291.71824       98685.664       13244.891       1.7392500       2.0670000      0.56800000       343.50800       3.1097599     0.016850292
       1553.0000       291.68854       98680.879       13209.211       3.5535000      0.92125000      0.16025000       343.50600       3.1700001     0.016158026
       1558.0000       291.66334       98660.303       13193.933       1.9365000       1.6390000       1.2142500       343.69200       2.9428744     0.014964979
       1563.0000       291.64340       98651.114       13198.289       4.4430000       1.1377500     -0.46550000       343.15500       2.8425207     0.020485436
       1568.0000       291.60541       98641.947       13214.585       3.9952500       1.4130000     0.056000000       343.42000       2.5461050     0.014258666
       1573.0000       291.58903       98637.023       13230.338       2.5907500       3.1795000     -0.35450000       343.46400       3.4533795     0.014808499
       1578.0000       291.60004       98640.165       13277.590       3.8325000       3.0522500     -0.30725000       343.16900       2.7423340     0.018844206
       1583.0000       291.60004       98640.105       13309.277       2.6402500       1.6185000       1.2602500       343.58400       2.4969499     0.015890091
       1588.0000       291.59982       98637.691       13320.841       1.7285000       1.1020000      0.87575010       343.59300       2.8143830     0.017755678
       1593.0000       291.59970       98640.434       13346.148       3.0365000       3.0552500     0.056750000       343.50800       2.0447154     0.021299810
       1598.0000       291.60010       98646.344       13395.029       2.1287500       4.1495000      0.34425000       343.19000       2.2183096     0.013880867
       1603.0000       291.60005       98651.747       13415.124       3.3930000       2.9560000    -0.017000000       343.49400       2.3767865     0.015174657
       1608.0000       291.58725       98662.967       13411.719       2.9512500       3.2885000     -0.52975000       342.99500       2.1582514     0.018800457
       1613.0000       291.60121       98668.240       13429.286       4.7057500       3.8677500     -0.21800000       342.98400       2.7290987     0.014237127
       1618.0000       291.63860       98669.768       13456.857       4.8045000       3.0285000     -0.86300000       343.04800       2.4516374     0.014297430
       1623.0000       291.65876       98671.406       13458.121       4.2122500       4.3330000      0.29750000       343.17600       2.7050087     0.015013787
       1629.0000       291.69972       98670.097       13459.094       3.9967500       5.4000000     -0.41625000       342.80600       3.2502753     0.014879482
       1634.0000       291.71320       98669.965       13452.961       3.2012500       3.2767500      0.20825000       343.09400       2.6208815     0.014504287
       1639.0000       291.70044       98673.778       13411.077       2.4552500       4.0850000     -0.67150000       342.98500       2.4878301     0.024229207
       1644.0000       291.70055       98669.050       13396.043       2.5470000       3.7655000     -0.22000000       343.07000       2.7742549     0.028874579
       1649.0000       291.70019       98659.308       13403.060       4.1237500       3.6027500     0.062000000       342.92500       1.9914583     0.022483520
       1654.0000       291.70013       98651.662       13395.944      0.96600000       4.6782500      0.17050000       343.00700       2.0187539     0.015620300
       1659.0000       291.69971       98636.388       13378.595       1.7895000       2.7945000      0.58550000       343.66600       1.9165712     0.027895043
       1664.0000       291.69954       98630.177       13375.383       3.7625000       5.6775000     -0.50550000       343.13700       1.9874553     0.013214101
       1669.0000       291.68885       98626.857       13382.000      0.65825000       2.8412500     -0.32200000       343.23000       2.0075321     0.037659663
       1674.0000       291.70494       98630.239       13378.683       2.1200000       3.9795000       1.2942500       343.23300       1.8950510     0.034354275
       1679.0000       291.75352       98642.962       13372.870       2.6332500       1.1632500     -0.10850000       343.20400       1.9913402     0.041419640
       1684.0000       291.75714       98648.903       13377.601       1.1232500       3.7442500      0.86350010       343.26300       2.0953334     0.017306790
       1689.0000       291.78146       98659.008       13382.633      0.66875000       2.3692500      0.36250000       343.39900       2.3571043     0.015642005
       1694.0000       291.74189       98664.748       13385.846       2.1447500       3.4022500     -0.41425000       343.34800       1.9871748     0.012316025
       1699.0000       291.62790       98664.465       13408.834       3.0310000       3.5065000    -0.017250000       343.06800       2.8306228     0.018302831
       1704.0000       291.55753       98666.480       13401.601       4.5605000       3.9682500      0.14950000       342.91700       3.3953364     0.015541492
       1709.0000       291.45801       98670.197       13375.184       2.7297500       4.6967500      -1.1475000       342.93700       2.5467521     0.022715626
       1714.0000       291.41032       98671.582       13345.910       4.7522500       3.9685000     -0.26200000       343.29700       2.3312238     0.026269307
       1720.0000       291.39710       98673.787       13294.442       3.3747500       4.8560000      0.23475000       342.93500       2.1828395     0.013156525
       1725.0000       291.38601       98666.261       13254.927       1.8207500       6.6420000       1.2867500       342.72200       2.6935408     0.012965439
       1730.0000       291.38217       98652.000       13198.819       3.4787500       4.1757500      0.33150000       343.02400       2.2445313     0.012419207
       1735.0000       291.41931       98644.105       13179.682       3.4107500       4.0880000     0.059500000       343.14700       2.1413646     0.013527970
       1740.0000       291.49045       98626.303       13172.599       4.9092500       3.4875000     -0.62525000       343.15800       2.3336934     0.012459611
       1745.0000       291.53087       98627.535       13174.011       4.1192500       4.1520000     0.061250000       343.04400       2.2381117     0.025680196
       1750.0000       291.59654       98646.467       13191.735       3.0682500       4.1490000     -0.84500000       343.41100       2.4209975     0.015909716
       1755.0000       291.63832       98646.740       13228.519       2.7515000       2.2337500     -0.91800000       343.32200       2.1599764     0.014035510
       1760.0000       291.64654       98646.141       13268.790      0.71600000       3.3582500      0.97175000       342.78100       2.6804511     0.015874922
       1765.0000       291.66659       98645.383       13338.777       2.6730000       2.9992500     -0.28925000       343.13100       2.1398173     0.016056183
       1770.0000       291.71224       98632.209       13467.318       2.5707500       3.9430000     -0.22275000       343.36800       1.9746451     0.015510568
       1775.0000       291.70496       98634.539       13520.380       2.0402500       4.8960000      0.61675000       343.30300       1.9651341     0.022624444
       1780.0000       291.65479       98648.669       13561.897       4.7157500       4.5045000     -0.73975000       342.56000       2.0171757     0.020961790
       1785.0000       291.63461       98655.704       13583.211       2.9195000       5.2032500     -0.82625000       342.57900       1.9503084     0.020463921
       1790.0000       291.61482       98665.439       13571.413       2.8370000       2.5997500      0.98075000       343.14200       2.0041755     0.030045943
       1795.0000       291.56584       98669.712       13536.394       2.4687500       3.5542500    -0.027750000       342.59200       1.9809238     0.015566064
       1800.0000       291.49750       98670.631       13476.280       2.8105000       3.0242500    -0.070000000       343.19200       1.9577349     0.023608619
       1805.0000       291.47611       98671.731       13439.511       2.7325000       3.4552500      -1.0265000       343.09400       1.9580667     0.034558843
       1811.0000       291.44405       98670.116       13370.515       3.2640000       3.2590000      0.20650000       343.15400       1.9276533     0.029054354
       1816.0000       291.44011       98671.921       13306.214       1.1177500       2.9395000     -0.35950000       343.26900       1.9408229     0.022840006
       1821.0000       291.45004       98671.122       13278.852       2.6805000       2.6965000     -0.25500000       343.27200       1.9310770     0.015300155
       1826.0000       291.45992       98669.087       13262.347       2.3065000       4.6942500      -1.0025000       342.85900       1.9627311     0.012324097
       1831.0000       291.43622       98666.675       13220.981       2.4262500       3.6010000      0.39050000       342.99200       1.8902129     0.019260502
       1836.0000       291.46923       98660.345       13251.479       1.0085000       3.0167500     -0.20100000       343.01600       1.9268525     0.014869373
       1841.0000       291.55611       98650.262       13353.459     -0.52150010       2.6960000     -0.67550000       342.73900       1.9604072     0.031139490
       1846.0000       291.58506       98638.780       13383.513       2.4410000       2.3307500      0.17875000       343.29700       1.8908537     0.033454666
       1851.0000       291.60653       98633.310       13427.891       2.3975000       5.5332500      -1.3880000       342.64300       1.9277851     0.014706392
       1856.0000       291.59969       98634.829       13478.197      0.79650000       3.2802500      0.60150000       343.25300       1.9551228     0.011883062
       1861.0000       291.59944       98634.749       13507.032       1.9150000       3.1750000     -0.43325000       343.07500       1.9695908     0.013277624
       1866.0000       291.59913       98635.905       13530.207       3.7857500       3.1865000      0.43300000       343.41600       1.9952549     0.014034368
       1871.0000       291.58648       98639.581       13559.131       2.0377500       2.9530000      0.39000000       342.85800       1.9646682     0.015433605
       1876.0000       291.62953       98644.766       13592.846       3.3682500       1.2040000      0.64875000       343.46000       1.9560088     0.012493031
       1881.0000       291.70037       98649.783       13617.718       2.9627500       2.7242500      0.10000000       343.16700       1.9099532     0.029808566
       1886.0000       291.77039       98660.377       13616.877       5.3082500       4.5005000     -0.68375000       342.43900       1.9717203     0.012367349
       1891.0000       291.81341       98666.693       13614.413       4.0395000       5.2680000      -1.1440000       342.53700       1.9826812     0.011309457
       1896.0000       291.81476       98668.939       13560.334       3.1542500       3.7167500      0.22750000       342.89200       1.9314175     0.013274363
       1902.0000       291.80261       98671.364       13515.159       2.4805000       1.5107500      0.47200000       343.40800       1.9930196     0.011624598
       1907.0000       291.80846       98670.146       13526.325       3.4222500       3.6472500     0.046000000       342.81500       1.9638590     0.013564791
       1912.0000       291.75530       98670.107       13486.001       4.2287500       3.0517500    -0.014000000       343.06500       1.9615609     0.014213345
       1917.0000       291.61007       98670.240       13404.555       3.8925000       1.8530000    -0.062500000       343.33000       1.9837426     0.012411361
       1922.0000       291.53115       98670.202       13337.972       4.7045000       2.0657500    -0.078000000       342.77900       1.8969349     0.015286805
       1927.0000       291.43122       98671.775       13229.655       4.4245000       2.2642500      -1.1210000       342.74800       1.9343207     0.020714582
       1932.0000       291.37461       98670.709       13166.194       2.8082500       2.0547500    0.0022500000       343.41000       1.9377624     0.014872940
       1937.0000       291.37204       98669.794       13109.611       2.9895000      0.80825000      0.58125000       343.43900       1.9918361     0.014342100
       1942.0000       291.39418       98665.612       13105.903       1.0975000       1.3382500       1.1775000       343.74500       1.9178686     0.016534380
       1947.0000       291.48263       98655.757       13182.376       2.9692500       2.3922500     -0.12825000       343.17400       1.9415112     0.016154519
       1952.0000       291.51116       98648.803       13214.896       3.1917500       1.9692500     -0.24100000       343.55100       1.9887067     0.013193777
       1957.0000       291.54712       98638.757       13267.558       2.8317500       2.1627500      0.13200000       343.08400       1.8538574     0.021563752
       1962.0000       291.56402       98632.986       13310.008       3.1112500       1.9372500      0.78325000       343.10700       1.8998975     0.018489340
       1967.0000       291.51028       98629.882       13298.502       3.7000000       3.6200000     -0.19600000       342.80800       1.9859905     0.013521035
       1972.0000       291.49156       98629.146       13330.370       5.9022500       3.0580000     -0.24325000       342.68300       1.9600489     0.013234595
       1977.0000       291.50006       98633.754       13426.734       4.3487500       1.7627500     -0.45125000       342.63300       2.0523201    0.0097812611
       1982.0000       291.50006       98635.790       13469.260       3.2072500       1.1377500     -0.18550000       343.50800       1.9512803     0.019779997
       1987.0000       291.47190       98636.405       13484.556       5.6720000       3.4007500      0.71525000       343.21600       1.9449566     0.014510859
       1993.0000       291.50197       98641.411       13521.123       4.8280000       1.3890000      0.42200000       343.25300       1.9489641     0.013289249
       1998.0000       291.57539       98644.153       13537.200       6.0662500       3.0540000      0.14075000       343.19400       1.9660632     0.013317364
       2003.0000       291.61482       98652.277       13537.673       5.1195000       2.9495000    -0.056500000       342.81300       1.9462299     0.014533116
       2008.0000       291.67612       98673.127       13538.278       4.0520000       2.5410000     -0.11300000       342.80700       1.9435247     0.015505852
       2013.0000       291.72218       98679.648       13545.244       4.4590000       1.8457500      0.10650000       342.81100       1.9857836     0.013221692
       2018.0000       291.73814       98678.434       13527.771       2.3812500       1.2725000      0.58475010       343.61400       1.9409462     0.016400754
       2023.0000       291.75827       98682.099       13522.331       4.4315000       1.0237500     -0.93925010       343.09400       1.9193954     0.017004223
       2028.0000       291.79516       98681.548       13541.342       4.1632500      0.79000000    -0.086000000       343.15600       1.9495111     0.015262730
       2033.0000       291.81170       98679.572       13553.706       2.7515000       1.5072500      0.47775000       343.65700       1.9952960     0.012696134
       2038.0000       291.80045       98681.669       13552.085       4.1642500       2.4860000     -0.71125000       343.35500       1.9594136     0.017025769
       2043.0000       291.80057       98680.923       13560.619       4.1200000    -0.049750000       1.3452500       343.32600       1.9555590     0.013676040
       2048.0000       291.81348       98672.657       13603.284       4.5670000       2.4187500     -0.61575000       342.78200       2.0079797     0.012540974
       2053.0000       291.79954       98668.056       13600.476       3.8020000       3.2785000     -0.13125000       342.87000       1.9197498     0.020280079
       2058.0000       291.76189       98669.097       13559.970       2.8045000      0.23725000      -1.0267500       342.90500       1.9334159     0.021983862
       2063.0000       291.74184       98664.314       13545.665       2.5550000       1.7142500      0.40100000       343.53200       1.9683389     0.014824812
       2068.0000       291.71736       98650.401       13529.909       2.8575000       2.3577500     -0.66775010       342.99000       1.9707198     0.016811852
       2073.0000       291.68732       98647.467       13499.288       2.7542500       2.5630000      0.12200000       343.16800       1.9852469     0.013572802
       2079.0000       291.66921       98652.335       13476.352       4.1070000       1.3812500     -0.17350000       343.41800       1.9777040     0.020199529
       2084.0000       291.63326       98648.759       13440.337       3.3732500       2.1647500     0.088500000       343.45400       1.9114006     0.015672390
       2089.0000       291.54773       98647.600       13355.904       3.0415000       3.2780000     -0.11175000       342.82300       1.9693196     0.013718281
       2094.0000       291.53012       98644.428       13324.779       4.1850000       3.1302500     -0.56600000       342.86700       1.9705355     0.014254699
       2099.0000       291.54189       98629.419       13321.053       3.9595000       1.6445000     -0.78775010       343.39500       2.0040833     0.012458791
       2104.0000       291.54835       98626.978       13309.948       2.4097500       1.9307500     -0.77350000       343.26900       1.9797352     0.011737152
       2109.0000       291.59866       98634.514       13311.043       2.2145000      0.57450000      0.52125000       343.82500       1.9673486     0.013448683
       2114.0000       291.61257       98636.557       13319.681       2.8177500       1.3217500      0.12050000       343.26600       1.9792467     0.012143819
       2119.0000       291.60004       98637.983       13323.895       1.2777500       1.0855000       1.0007500       344.08900       1.9524642     0.015274929
       2124.0000       291.60004       98642.632       13347.686       2.1587500       2.2445000      0.15300000       343.44300       1.9410334     0.015174161
       2129.0000       291.58886       98647.601       13380.262       2.4087500       3.8127500      0.24425000       343.22400       2.0320353     0.012190019
       2134.0000       291.60492       98653.181       13444.692       3.9107500       1.5385000      0.20800000       343.30000       1.9779854     0.013555181
       2139.0000       291.64126       98664.384       13555.182       1.7702500       1.5432500    -0.083500010       343.73200       2.0029470     0.013182448
       2144.0000       291.66144       98669.145       13615.219       3.3760000       1.2222500     0.054000000       342.90200       2.0166559     0.014597224
       2149.0000       291.67712       98670.201       13682.873       3.7512500       1.5137500     -0.29600000       342.58500       1.9651663     0.013836654
       2154.0000       291.72389       98671.594       13733.973       2.4470000       1.2562500     0.043750000       343.45700       1.9668183     0.017993926
       2159.0000       291.77488       98668.046       13748.851       2.0227500      0.75125000     -0.45050000       343.19100       1.9650851     0.013166682
       2164.0000       291.83135       98671.276       13762.461       3.9100000       1.3280000    -0.096750010       342.91600       1.9699198     0.014218817
       2170.0000       291.95253       98679.518       13784.341       4.4287500      0.63250010      0.73950000       343.71200       1.9759759     0.012381736
       2175.0000       291.99452       98683.488       13785.970       1.9530000       1.6752500    -0.036750000       343.31100       1.9429844     0.017325331
       2180.0000       292.01227       98692.729       13753.523       3.8420000       2.0287500     -0.31500000       343.06900       1.9860796     0.013658982
       2185.0000       292.00524       98691.300       13744.809       2.5555000       1.5327500      0.55550000       343.96200       1.9792653     0.014796073
       2190.0000       291.96457       98682.339       13754.193       2.9330000      0.92825000     -0.15650000       343.84000       1.9057958     0.016391936
       2195.0000       291.92566       98676.487       13734.820       3.0582500       2.3915000     -0.53550000       343.30900       1.9883282     0.012644384
       2200.0000       291.84336       98665.111       13691.973       2.0557500       1.1820000    -0.046250000       343.87200       1.9567666     0.012891849
       2205.0000       291.83098       98660.838       13685.289       1.9572500       1.4457500      0.26400000       343.57100       1.9573260     0.015601078
       2210.0000       291.86164       98661.601       13700.217       1.2517500      0.81500010      0.54500000       344.19400       1.9449810     0.013750345
       2215.0000       291.83312       98656.718       13659.140       1.8682500       1.0512500      0.13325000       343.74500       1.9359079     0.014892696
       2220.0000       291.80278       98651.093       13601.065       1.6120000       1.5602500     -0.37800000       344.00200       1.9180622     0.023496527
       2225.0000       291.79324       98647.122       13577.566       2.0055000       2.4205000     -0.60200010       343.35200       1.9434950     0.013873839
       2230.0000       291.74855       98640.635       13516.178       2.6455000       2.1815000     0.068250000       343.74600       1.9241090     0.011082172
       2235.0000       291.72758       98636.534       13495.628       1.3325000       1.5010000     -0.73800000       343.55000       1.9545698     0.021746727
       2240.0000       291.73901       98635.562       13523.139       3.5295000       4.2732500       1.2745000       343.98500       1.9457237     0.021812154
       2245.0000       291.76804       98633.501       13552.846       2.8645000       3.2700000      0.11600000       343.02800       1.9377605     0.014585048
       2250.0000       291.79024       98629.806       13574.804       2.2742500       3.1580000    -0.070750010       343.20200       1.9605627     0.013411444
       2255.0000       291.81890       98628.693       13614.774       1.8940000       2.9047500     -0.58250000       343.79200       1.9547477     0.014354760
       2261.0000       291.90699       98629.870       13714.886      0.79075000       2.4800000     -0.18125000       343.45900       1.9834944    0.0093997639
       2266.0000       291.90010       98633.279       13728.606       3.5137500       3.6500000     -0.27525000       343.28300       1.9530621     0.014745814
       2271.0000       291.93716       98635.234       13776.895       4.1227500       3.2690000      -1.0635000       342.62700       2.0221271     0.021519192
       2276.0000       291.99874       98637.190       13841.250       3.1267500       2.5660000     -0.42750000       343.17400       1.9517656     0.024243570
       2281.0000       292.11095       98639.639       13926.545       3.0457500       3.7122500     -0.79825000       342.66500       1.9629993     0.015003460
       2286.0000       292.13869       98644.863       13989.324       3.6867500       3.9002500    -0.023000000       342.49300       1.9768896     0.016699902
       2291.0000       292.16233       98649.904       14085.272       1.9045000       3.2145000     -0.90950010       342.95000       1.9808547     0.014599535
       2296.0000       292.12966       98661.737       14052.620       2.1817500       3.4525000     -0.53825000       343.04800       1.9823086     0.013485690
       2301.0000       292.09939       98667.216       14016.570       3.2847500       3.1792500      0.87250010       343.43900       2.0027404     0.013391217
       2306.0000       292.08479       98664.193       13902.384       1.9390000       2.2525000      0.32525000       343.71800       1.9956717     0.012106484
       2311.0000       292.05617       98665.141       13827.226       2.2645000       3.1882500     -0.19800000       343.02800       1.9897056     0.012541241
       2316.0000       292.01521       98666.089       13766.678       1.8670000       3.1695000     0.056000000       342.86800       1.9961481     0.011662213
       2321.0000       291.95103       98665.244       13727.000       1.5555000       2.3955000     -0.56975000       342.93600       2.0046284     0.014032526
       2326.0000       291.90049       98664.236       13662.575       3.3342500       3.2915000      0.22275000       342.87800       1.9610489     0.016490788
       2331.0000       291.83745       98664.057       13596.108       1.7222500       2.5767500     0.078250010       343.08600       1.9736117     0.016781782
       2336.0000       291.86020       98673.844       13573.246       2.5182500       2.1355000      0.49575000       343.31500       1.9597471     0.016275949
       2341.0000       291.85028       98676.027       13540.557       2.4267500       1.8675000     -0.31550000       343.55100       1.9900318     0.014527408
       2346.0000       291.85496       98679.840       13538.959       4.6550000       2.5580000     -0.52500000       342.61400       1.9653068     0.014535777
       2352.0000       291.85461       98682.154       13535.737       3.4535000       2.2247500     -0.28900000       343.35700       1.9976412     0.011678954
       2357.0000       291.80998       98672.429       13502.733       3.9310000       5.1385000    -0.013250000       342.60700       1.9810881     0.013102921
       2362.0000       291.79139       98668.794       13496.731       3.1395000       3.6752500      0.45225000       343.12200       1.9702060     0.013935525
       2367.0000       291.84401       98670.305       13542.963       4.0282500       4.0055000     -0.41800000       343.04000       1.9975018     0.012272788
       2372.0000       291.80988       98670.288       13544.568       2.7815000       3.2730000      0.21875000       343.04600       1.9737126     0.014526400
       2377.0000       291.67001       98671.677       13503.088       1.2775000       3.0767500    0.0077500000       342.88200       1.9562527     0.014595841
       2382.0000       291.63227       98670.536       13505.380       2.9842500       4.8102500     -0.85000000       342.48600       1.9586135     0.014728519
       2387.0000       291.59839       98669.796       13521.808       1.5340000       3.8855000     0.077750000       342.86900       1.9488855     0.014174923
       2392.0000       291.58186       98665.651       13521.387       2.3670000       3.4805000     -0.36950000       343.06200       1.9899856     0.014850987
       2397.0000       291.69503       98654.566       13558.938       3.4460000       2.7102500      0.69000010       343.21000       1.9812555     0.015481688
       2402.0000       291.72094       98648.790       13565.520       1.1562500       4.2310000      -1.0505000       342.88100       1.9727667     0.014600221
       2407.0000       291.69575       98643.696       13533.834       2.1072500       3.3397500     -0.35600000       343.38700       1.9881391     0.018281382
       2412.0000       291.65265       98638.845       13499.085      0.66250000       1.9712500      0.59950000       343.49400       2.0505603    0.0095107462
       2417.0000       291.51433       98636.922       13419.681       1.8040000      0.59900000      0.30975000       343.98300       1.9980657     0.012660534
       2422.0000       291.47839       98634.945       13406.400       1.6622500       1.4220000    -0.056000000       343.51000       1.9491535     0.017371182
       2427.0000       291.50284       98631.452       13446.085       1.9115000       2.8800000      0.37525000       343.32600       1.9762854     0.012806576
       2432.0000       291.49417       98629.642       13442.354       2.5137500       2.6462500      0.18825000       343.80700       1.9796089     0.012148500
       2437.0000       291.53252       98630.308       13448.250       4.1767500       2.4472500      0.21150000       343.19000       1.9412975     0.015914500
       2443.0000       291.56506       98630.332       13472.196       2.3422500       3.9870000     -0.53600000       343.43600       2.0437856     0.012230633
       2448.0000       291.52984       98630.447       13447.941       2.5132500       3.4522500     -0.10300000       342.63100       1.9823254     0.012276381
       2453.0000       291.54685       98630.483       13458.108       2.7582500       2.5782500     0.056500000       343.25700       2.0383466    0.0089625541
       2458.0000       291.61845       98630.486       13515.733       2.8067500       3.1645000     -0.22600000       343.52600       1.9796657     0.012726436
       2463.0000       291.66845       98630.564       13566.212       1.8392500       2.1000000      0.20425000       343.53600       2.0036451     0.020446253
       2468.0000       291.70636       98630.313       13605.239       1.1825000       2.2645000      0.71075000       343.37600       2.0553465     0.012341751
       2473.0000       291.77033       98630.331       13663.603       3.0102500       2.7860000     -0.66725000       342.82900       1.9766941     0.013188965
       2478.0000       291.87245       98629.017       13774.171       2.4592500       1.7360000      0.28525000       343.19600       1.9882480     0.012528547
       2483.0000       291.92923       98630.391       13830.291       3.9505000       2.9810000     -0.63475000       342.24200       1.9832049     0.014636115
       2488.0000       292.01653       98631.421       13873.022       3.1680000      0.25250000      0.20600000       343.25600       1.9903584     0.015764427
       2493.0000       292.02157       98636.079       13891.733       4.6057500      0.43200000      0.91575000       343.13900       1.9915467     0.015718050
       2498.0000       291.96582       98647.248       13887.272       4.2537500      0.40100000      0.41275000       343.18000       1.9505744     0.015169727
       2503.0000       291.88384       98652.883       13847.877       5.1570000      0.92800000     -0.39275000       342.87300       1.9478931     0.014191975
       2508.0000       291.69644       98659.322       13755.539       5.4550000       3.1187500     -0.56625000       342.87300       1.9465620     0.016225303
       2513.0000       291.60356       98662.661       13698.559       1.6622500       1.6752500      0.79450010       343.53700       1.9956563     0.013531913
       2518.0000       291.51483       98660.344       13621.270       3.5820000       2.7310000     -0.20650000       343.41000       1.9745498     0.013890633
       2523.0000       291.46589       98660.363       13562.349       4.2872500       3.3775000     0.096000000       342.70200       1.9961073     0.013135747
       2528.0000       291.47399       98660.098       13518.485       3.1605000       3.1905000      0.41200000       343.23900       1.9712388     0.014517917
       2534.0000       291.50982       98660.027       13499.550       3.5817500       1.0820000     -0.33775000       343.34200       1.9507904     0.015264810
       2539.0000       291.57251       98659.171       13493.381       3.0092500      0.65525000      0.24175000       343.72600       1.9873501     0.014535501
       2544.0000       291.62812       98660.743       13497.477       4.7945000      0.12875000      0.55850010       343.01600       2.0029481     0.010610745
       2549.0000       291.75109       98664.406       13541.085       6.1700000      0.62650000      0.23450000       342.73100       1.9327794     0.016422800
       2554.0000       291.78203       98666.405       13567.360       3.5917500       3.8330000      -1.3095000       343.30100       1.9461677     0.014870924
       2559.0000       291.76807       98670.244       13584.581       3.2305000       1.8595000     0.015000000       343.38600       1.9695904     0.014633377
       2564.0000       291.74583       98671.706       13609.085       2.2305000       1.6655000      0.10550000       343.57800       1.9813940     0.013984849
       2569.0000       291.65806       98671.463       13639.973       4.4897500       2.1432500     -0.87800000       343.57900       2.0127967     0.014816960
       2574.0000       291.62411       98669.852       13673.354       4.0225000      0.70400010      0.13150000       343.41300       1.9740320     0.014937636
       2579.0000       291.62330       98664.941       13726.584       3.9157500       1.9170000      0.54575000       343.06000       1.9609120     0.015694522
       2584.0000       291.57744       98664.551       13732.976       4.1300000       2.5695000     -0.23400000       343.40000       1.9410242     0.014691347
       2589.0000       291.51754       98664.422       13725.790       2.9532500       2.9482500     -0.41800000       342.92600       1.9773572     0.013044999
       2594.0000       291.47736       98665.061       13708.589       2.7507500       2.5552500    -0.058500000       343.08000       2.0223188     0.013787683
       2599.0000       291.40253       98670.261       13644.596       2.9877500       2.6502500     -0.20950000       343.05100       1.9841802     0.013484834
       2604.0000       291.37514       98671.713       13613.767       3.3517500       3.0487500     -0.50975000       342.76300       1.9469883     0.016442378
       2609.0000       291.41087       98670.121       13616.060      0.88350000       2.9345000    -0.071500000       343.33100       1.9832443     0.016077269
       2614.0000       291.39456       98670.062       13569.481       2.1042500       2.3657500     -0.27825000       342.60600       2.0134420     0.013004226
       2619.0000       291.34673       98670.430       13475.285       1.9600000      0.39400000      0.25950000       343.76800       1.9709888     0.014535557
       2625.0000       291.34392       98670.501       13445.095       2.4195000       1.8440000   -0.0055000000       343.49000       1.9628024     0.016268587
       2630.0000       291.35213       98671.214       13423.995       3.3202500       2.0907500     -0.11400000       343.25700       2.0247208     0.013573440
       2635.0000       291.34236       98669.367       13411.959       3.2482500       1.8072500     -0.25325000       342.81000       1.9646851     0.016667214
       2640.0000       291.37738       98665.816       13453.132       2.5202500       2.5285000     -0.65925000       342.99600       1.9800346     0.015153626
       2645.0000       291.33056       98663.794       13461.356       1.4852500       1.4025000      0.15450000       343.74500       1.9317411     0.018613621
       2650.0000       291.21458       98660.028       13442.605       2.8902500       3.0217500     -0.41600000       342.68000       1.9138086     0.024450352
       2655.0000       291.14439       98658.938       13436.380       2.3115000       2.2227500    -0.075500000       343.30100       1.9568120     0.017519685
       2660.0000       291.03802       98661.998       13443.079       3.3937500       1.4847500     -0.61975000       343.23000       1.9691358     0.019694370
       2665.0000       291.01394       98658.271       13443.933       3.2930000       2.0825000     -0.20625000       343.28800       1.9787372     0.016227072
       2670.0000       291.02498       98651.124       13413.360       2.4407500       2.6225000   -0.0075000000       343.28400       1.9307811     0.016671927
       2675.0000       291.07076       98647.154       13449.185       3.4842500       1.7220000     -0.26175000       343.19600       1.9517617     0.017419404
       2680.0000       291.19431       98639.741       13538.103       4.0297500       3.9585000     -0.62500000       342.84300       1.9404729     0.014165309
       2685.0000       291.24601       98637.523       13572.065       2.5722500      0.42050000       1.3117500       343.50100       1.9990756     0.012182167
       2690.0000       291.27983       98640.312       13608.045       2.7170000       2.4085000     -0.16850000       342.48100       1.9313288     0.016582477
       2695.0000       291.35946       98640.345       13658.577       2.9777500       2.3667500     -0.28750000       343.19400       1.9337281     0.018843795
       2700.0000       291.44036       98640.140       13675.891       3.2330000       1.8712500   -0.0045000000       342.51900       1.9856174     0.015087604
       2705.0000       291.50026       98640.081       13730.495       3.8467500       2.2887500     -0.12300000       342.74900       1.9668611     0.015133696
       2710.0000       291.59156       98640.393       13825.215       3.0332500       2.6740000     -0.38200000       342.53000       1.9956435     0.015544607
       2716.0000       291.66010       98641.799       13965.105       3.5885000       2.3977500    -0.089000000       342.33400       1.9564855     0.017528789
       2721.0000       291.69992       98640.976       14041.791       3.1900000       2.3775000     -0.15700000       342.75500       2.0047599     0.013320265
       2726.0000       291.73973       98638.931       14105.216       3.2190000       2.8305000     -0.57700000       342.79800       1.9645147     0.020651990
       2731.0000       291.80580       98635.103       14188.511       2.3095000       2.3845000      0.87150000       343.33000       1.9797836     0.010866892
       2736.0000       291.84461       98632.990       14207.422       3.0045000      0.94800010     -0.38775000       342.85400       1.9766497     0.015027961
       2741.0000       291.85599       98629.747       14172.113       3.8110000       1.2287500    0.0035000000       342.74700       1.9856747     0.016861862
       2746.0000       291.85459       98630.274       14090.282       2.5475000       1.4287500      0.12175000       343.66600       1.9928149     0.019407275
       2751.0000       291.85593       98630.274       14044.419       2.0685000       1.5707500      0.11275000       342.89800       1.9761760     0.018266187
       2756.0000       291.81502       98630.274       13986.800       2.0047500       1.7025000      0.38300000       343.78800       1.9534651     0.024078748
       2761.0000       291.79396       98630.274       13938.696       1.4350000       1.9717500      0.28475000       343.19200       2.0058132     0.013667073
       2766.0000       291.78519       98630.274       13907.047       2.5745000       1.8317500     -0.66750000       342.88200       1.9854535     0.017255944
       2771.0000       291.79348       98631.675       13913.671       1.5982500      0.73750000      0.66800000       343.27100       1.9285973     0.016432165
       2776.0000       291.81491       98627.379       13900.235       2.9455000       1.6715000      0.40750000       343.18800       2.0058521     0.015230914
       2781.0000       291.84426       98620.322       13872.335       1.5180000       2.4682500      0.33100000       343.77300       1.9773872     0.019629297
       2786.0000       291.96011       98613.242       13919.517       1.7490000       3.4985000      0.29650000       343.81000       2.0012142     0.014551076
       2791.0000       291.97590       98608.964       13921.738       2.0305000       1.6185000   -0.0090000010       343.62500       1.9822857     0.017524189
       2796.0000       291.87950       98610.423       13877.516       1.6345000       2.7160000      0.11650000       342.90400       1.9580232     0.017659546
       2802.0000       291.84380       98610.539       13878.329       2.8920000       2.9065000     -0.36600000       343.02300       1.9760735     0.014759942
       2807.0000       291.76350       98610.339       13865.177      0.73000000       1.8762500     -0.10850000       343.63200       1.9795494     0.014135074
       2812.0000       291.72733       98610.360       13874.646       2.0905000       2.8682500     -0.34100000       343.54600       1.9559447     0.018237094
       2817.0000       291.80514       98610.467       13978.732       2.4995000       3.9585000     -0.30175000       342.92000       1.9366964     0.011529236
       2822.0000       291.81257       98610.543       14002.092       2.8287500       2.2232500    -0.089250010       343.69500       1.9789021     0.015510505
       2827.0000       291.78033       98610.305       13977.371       3.3285000       3.0350000     -0.65950000       343.37700       1.9599535     0.015663570
       2832.0000       291.74895       98610.321       13953.291       2.0300000       3.9042500     -0.51525000       343.58000       2.0379545     0.013491236
       2837.0000       291.67509       98610.209       13872.357      0.23650000       4.7185000      0.12325000       342.64900       1.9746211     0.014771790
       2842.0000       291.63583       98610.188       13824.462      0.51875000       4.4122500      0.47650000       343.09500       1.9880500     0.017321847
       2847.0000       291.60937       98610.440       13804.615       2.1290000       3.2490000     -0.81200000       342.57600       1.9964578     0.020996433
       2852.0000       291.59065       98610.538       13767.048       1.5440000       1.7512500     -0.57725000       343.02900       2.0321177     0.013986665
       2857.0000       291.57083       98610.339       13703.252       1.6232500       3.5630000     -0.33875000       343.24500       1.9611953     0.017303480
       2862.0000       291.59383       98610.360       13685.374       3.4675000       3.2172500     -0.14675000       343.01600       2.0411112     0.014535709
       2867.0000       291.64039       98610.406       13661.380       1.6310000       2.4782500     0.050500000       342.83600       1.9986307     0.014333532
       2872.0000       291.70361       98610.503       13684.508       1.6847500       1.6707500    -0.073000010       343.45200       1.9881088     0.013973962
       2877.0000       291.79431       98610.336       13776.113       2.1657500       2.1687500      0.14075000       343.92100       1.9532423     0.017340359
       2882.0000       291.91720       98610.336       13860.543       3.8587500       4.1107500      0.87950000       343.16300       2.0941007     0.015753003
       2887.0000       292.07619       98610.441       13935.437       1.3345000       4.8107500     -0.29900000       342.68500       1.9591834     0.016752137
       2893.0000       292.25814       98610.560       14099.827       3.1510000       4.3990000      0.18850000       343.19500       1.9823222     0.016120405
       2898.0000       292.49365       98610.345       14310.656       1.3735000       4.8232500     -0.99850000       343.00500       2.0332921     0.016683624
       2903.0000       292.61796       98610.363       14468.171       1.8670000       4.1977500      0.15100000       343.01500       2.0229790     0.017737944
       2908.0000       292.73939       98610.480       14747.768       3.4135000       5.8015000      0.60300000       343.27900       1.9917242     0.017626748
       2913.0000       292.73273       98610.561       14811.107       1.9672500       4.4232500      0.28350000       342.53700       1.9898638     0.016796001
       2918.0000       292.58687       98606.469       14732.085     -0.93650010       3.5607500       1.0225000       343.15700       2.0154252     0.014702846
       2923.0000       292.46520       98610.610       14625.357       2.5082500       4.2127500     -0.23950000       343.06000       1.9688170     0.018678818
       2928.0000       292.21652       98623.146       14329.576       1.8327500       2.1482500      0.95400010       343.65400       1.9887858     0.017383836
       2933.0000       292.07661       98627.852       14155.722       3.7557500       3.2115000      0.61625000       343.48800       2.0423478     0.014173725
       2938.0000       291.97602       98637.758       14001.623       2.9032500       3.1645000     -0.30900000       343.69300       1.9982680     0.015697124
       2943.0000       291.90757       98637.942       13869.066       2.9412500       2.1037500      0.55400000       343.87200       1.9706320     0.015873469
       2948.0000       291.85142       98623.371       13739.280       2.2990000       3.2260000     -0.34800000       343.94500       2.0233239     0.014953965
       2953.0000       291.89131       98617.777       13697.193       4.0032500       2.6247500      -1.2825000       343.81600       1.9914005     0.014000906
       2958.0000       292.05258       98611.187       13732.472       3.3297500       3.9827500      0.35825000       343.04500       1.9689605     0.014963707
       2963.0000       292.13307       98607.829       13732.363       1.3640000       2.2587500      0.55575000       343.53600       1.9423983     0.017021745
       2968.0000       292.26874       98610.204       13792.775      0.49350000       1.3682500      0.76375000       343.90700       1.9405116     0.015898842
       2973.0000       292.34826       98610.185       13828.625       3.5987500       3.4827500     -0.26625000       342.88300       1.9597656     0.018999450
       2978.0000       292.35082       98610.448       13830.521       3.4275000       3.8355000     -0.33975000       343.15000       2.0068977     0.016577016
       2984.0000       292.35632       98610.488       13828.496       2.9935000       2.9245000      0.23550000       343.24500       1.9822293     0.017047842
       2989.0000       292.36910       98608.137       13852.443       3.0687500       2.1767500     -0.38250000       343.23600       1.9688366     0.018748362
       2994.0000       292.34725       98611.396       13843.490       1.8902500       3.3385000     -0.67550000       343.20700       1.9650537     0.013765046
       2999.0000       292.28346       98620.903       13786.704       2.8450000       3.2315000    0.0087500000       343.35800       1.9431925     0.011600410
       3004.0000       292.21694       98621.669       13756.840       1.1022500       2.6415000      0.20625000       344.56300       1.9645329     0.018737750
       3009.0000       292.13972       98621.508       13731.951       2.1162500       2.2170000     -0.19300000       343.78300       1.9648660     0.017934750
       3014.0000       292.05305       98620.213       13712.178       1.2615000       2.2670000     -0.54475000       344.14300       1.9910149     0.018278717
       3019.0000       291.90434       98610.432       13680.504       4.3667500       4.4942500      -1.3610000       343.57900       1.9940062     0.013652692
       3024.0000       291.85237       98607.668       13683.146       3.3887500       2.5687500    -0.080750000       343.30700       1.9612084     0.019171074
       3029.0000       291.80993       98610.457       13703.400       4.3845000       4.4600000     -0.72500000       342.85900       1.9146115     0.019664254
       3034.0000       291.85075       98610.487       13738.686       3.1702500       4.2192500     0.065500010       343.19300       1.9328423     0.016105005
       3039.0000       292.01167       98610.456       13814.704       2.0700000       3.6960000     -0.53775000       343.60300       1.9562500     0.027423295
       3044.0000       292.10223       98610.487       13859.039       3.9942500       2.4550000      0.50300000       344.22400       1.9607839     0.016745803
       3049.0000       292.22791       98610.226       13890.615       3.8780000       4.8490000     -0.67325000       343.17200       1.9628039     0.013955547
       3054.0000       292.30581       98610.183       13945.947       3.6945000       2.9117500      0.20400000       343.47500       1.9240728     0.017171618
       3059.0000       292.35358       98610.199       13987.020       5.2850000       2.6592500      0.11400000       342.95700       1.9450658     0.019440772
       3064.0000       292.37129       98610.183       14067.509       4.8360000       4.2615000     -0.24075000       343.18800       1.9328299     0.015129068
       3069.0000       292.39069       98610.457       14246.104       3.5460000       3.0177500     -0.59400000       342.84500       1.9595055     0.017426919
       3075.0000       292.31876       98610.490       14272.385       2.9995000       2.7820000     -0.50325000       343.75100       1.9693333     0.013962585
       3080.0000       292.15058       98611.245       14230.615       3.4702500       3.1812500     -0.78800000       342.97100       1.9454164     0.014086112
       3085.0000       292.09836       98609.398       14211.585       1.4177500       2.0275000      0.17275000       343.48100       1.9661096     0.013855171
       3090.0000       292.04605       98605.664       14118.725       2.8347500       2.3592500      0.10875000       343.30800       1.9752939     0.017214981
