MIRICO/SHELL project - Processed LDS file generated on
Fri Jul 14 01:43:52 2017
Time stamp for record start
05/11/2017  13:13:15.0001
Nb of points in the record
         612
Beam position index
       2.0000000
Beam angle (degrees)
      -8.6100000
Open Path length (m)
       64.850000
****************** Temporal data record ************************
Elapsedtime_sec Temp_K Press_Pa Humidity_ppmv WindX_m/s WindY_m/s WindZ_m/s Speedofsound_m/s CH4vmr_ppmv CH4vmrerror_ppmv  
      0.00000000       293.63947       98657.527       13767.257       4.8427500       4.0477500    -0.091000010       344.11400       2.9051135     0.015516569
       4.9999729       293.53956       98631.181       13806.179       2.3620000       1.6437500       1.1842500       345.29300       2.7262191     0.018740317
       9.9999860       293.50000       98621.646       13820.302       4.6422500       3.0345000      0.22800000       344.35700       2.7382080     0.016917049
       14.999999       293.46013       98619.224       13783.081       6.5407510       1.7220000     -0.17325000       343.69000       2.7374183     0.013398246
       19.999972       293.40076       98621.423       13749.737       2.2477500       2.3742500      0.94550000       344.35900       2.7837722     0.020266598
       24.999985       293.34138       98630.996       13706.288       3.7535000      0.78250000      0.20425000       344.71500       2.8439571     0.016075790
       29.999998       293.30223       98657.574       13649.597       5.0720000       3.1417500     -0.75100000       343.66400       2.6465415     0.016517936
       34.999971       293.26185       98664.101       13578.451       5.6400000       1.2482500     -0.37975000       344.00600       3.2650215     0.013707263
       39.999984       293.16400       98668.948       13479.007       5.0440000       1.4865000      0.15425000       344.33700       3.0554862     0.016619988
       44.999997       293.29228       98652.644       13459.847       4.3365000       2.0910000      -1.4190000       343.75400       3.1789491     0.015048020
       49.999970       293.39032       98644.427       13452.802       2.7672500       1.5567500      0.44725000       345.50400       2.7056358     0.015991146
       55.999978       293.61558       98629.055       13528.441       3.3045000       1.8280000     -0.15550000       345.49800       2.5385406     0.019819869
       60.999991       293.74071       98626.900       13585.904       5.1440000       3.3662500     -0.76575010       343.54300       2.3235197     0.013375672
       66.000004       293.85808       98640.299       13655.524       3.0950000       3.2582500     -0.16850000       345.11100       2.2358312     0.017972815
       70.999977       293.88097       98646.314       13699.654       3.3537500       2.2625000      0.93050000       344.46900       2.4295147     0.017516576
       75.999990       293.82954       98660.181       13767.787       3.4142500       2.6630000     -0.47525000       344.20000       2.9010877     0.019765764
       81.000003       293.75386       98663.621       13781.789       4.8415000       2.5665000     -0.96950010       343.82200       3.1197116     0.016557576
       85.999976       293.53835       98657.441       13743.040       4.0550000       1.9852500    -0.091000010       344.38500       2.2563327     0.014346437
       90.999989       293.40988       98650.007       13694.786       3.0060000       2.7160000     -0.11725000       345.16600       2.9885771     0.015000336
       96.000002       293.27940       98624.881       13588.171       5.4340000       4.8602500     -0.22950000       343.13200       2.8720278     0.014186548
       100.99998       293.21525       98620.909       13523.526       5.1737500       2.6207500     -0.68500010       342.87700       2.8064331     0.012982812
       105.99999       293.27241       98628.977       13482.720       3.5530000       1.3540000     -0.30575000       344.69200       2.8568759     0.015101139
       111.00000       293.25145       98634.486       13418.926       3.8262500     -0.56525000    -0.026500000       345.35200       2.7954804     0.015742268
       115.99997       293.28303       98658.768       13393.687       3.3097500       1.3787500      0.13650000       345.19800       3.1715326     0.016216031
       120.99999       293.21657       98670.137       13311.466       1.5802500       2.4505000     0.097250010       344.92200       3.1876466     0.012834191
       126.00000       293.01299       98675.021       13166.184       6.7075000       2.8902500      0.20950000       343.54200       3.0645146     0.015633110
       130.99997       292.87216       98672.467       13039.944       3.2532500       2.6455000     -0.40475000       344.39900       2.5677368     0.014507443
       135.99999       292.59868       98656.453       12824.915       3.1570000       1.5577500      0.98150000       346.09700       3.0721278     0.015463220
       141.00000       292.53721       98648.391       12738.672       4.5550000      0.23450000      0.92375000       344.33900       2.9535482     0.015885177
       147.00001       292.67482       98628.482       12727.465       4.7820000       3.2357500     -0.27725000       344.00300       2.9160434     0.012616118
       151.99998       292.76932       98626.163       12742.721       5.1000000       3.1855000    -0.022250000       343.68400       2.6160583     0.013745377
       156.99999       293.09015       98640.104       12905.009       2.4230000       1.9812500      0.50525000       345.05500       3.4019300     0.015422583
       162.00001       293.16869       98647.544       12944.645       3.3085000       2.8332500     -0.87925000       344.79200       3.1183739     0.012963778
       166.99998       293.08842       98663.846       12932.135       4.5897500       2.3112500     0.082500000       344.21700       2.8487140     0.015593496
       171.99999       293.04720       98669.392       12925.002       2.6360000       2.1440000      0.39425000       345.50200       2.7532248     0.014783993
       177.00001       292.84913       98669.806       12820.804       2.3910000      0.87450000     -0.21150000       344.68200       2.4838779     0.014889919
       181.99998       292.80703       98665.361       12826.336       2.5460000      0.79050000      0.43875000       345.80800       2.3866549     0.014386443
       186.99999       292.92043       98649.222       12922.764       1.5445000       1.0432500      0.42775000       346.67000       2.3702531     0.015267431
       192.00000       292.90315       98641.646       12961.316       4.4362500       1.6677500      0.24925000       342.84000       2.8780347     0.013954309
       196.99998       292.87628       98628.068       13045.266       4.7505000       2.0217500      0.13475000       343.34600       2.3693596     0.012139570
       201.99999       292.84928       98627.331       13074.269       4.8240000       1.4522500     -0.62825000       343.61700       2.9481687     0.012808844
       207.00000       292.72920       98640.326       13040.008       4.0745000       2.0502500     -0.43075000       343.90700       3.0150846     0.013394934
       211.99998       292.66708       98647.855       13014.469       4.4542500       1.6432500      0.13550000       343.91900       3.5809283     0.012390521
       216.99999       292.63668       98666.429       12960.897       2.6407500      0.64250000      0.29600000       345.04400       3.0917878     0.013391021
       222.00000       292.64434       98669.271       12941.883       3.2807500      0.98750010     -0.39425000       345.51500       2.8938993     0.014133471
       226.99998       292.61729       98659.431       12876.823       3.5660000      0.26950000     -0.31050000       344.32400       2.7485672     0.013043304
       231.99999       292.70876       98653.687       12917.830       3.9790000     -0.83025000     -0.39925000       345.13400       2.9153692     0.012867950
       238.00000       292.99744       98635.112       13082.882       4.4850000    -0.040250000      0.68650000       344.50200       2.3730489     0.016114314
       242.99997       293.13995       98630.647       13186.586       4.3160000      0.33225000      0.72275000       344.66300       2.3611546     0.012714223
       247.99998       293.40803       98630.999       13385.594       4.7287500       1.9327500      -1.0847500       345.73600       2.6524051     0.012983759
       253.00000       293.39695       98636.567       13453.108       3.5452500       1.1777500      0.65475000       345.05000       2.9755892     0.014255414
       257.99997       293.17905       98652.573       13443.040       4.7532500     -0.34425000     -0.10625000       344.39400       3.7500770     0.012363341
       262.99998       293.02305       98659.908       13423.206       3.0370000       2.5382500    -0.020250000       343.51600       3.2324897     0.012710391
       267.99999       292.67409       98673.514       13318.168       2.7292500       1.4380000     0.074500000       345.86800       2.8636268     0.016729447
       272.99997       292.53084       98672.819       13273.413       2.2325000      0.92350010     -0.39600000       346.12400       2.3924425     0.015697393
       277.99998       292.47895       98658.729       13238.506       1.9030000       1.3340000     -0.12150000       345.73400       2.2869508     0.014836356
       282.99999       292.47056       98651.124       13205.878       3.0845000      0.87425010       1.1305000       345.08800       2.6066143     0.015252663
       288.00001       292.56157       98632.841       13195.224       3.5585000       4.3920000     -0.84650000       343.04300       2.2312548     0.011671217
       292.99998       292.63348       98631.508       13175.136       3.1865000       2.0145000    -0.082500000       343.24500       2.3675143     0.025580455
       297.99999       292.74529       98641.425       13139.842       4.4357500       3.5802500     -0.13575000       343.15500       2.1123051     0.014376065
       303.00001       292.86207       98647.716       13125.548       3.3260000       3.7015000     -0.35725000       345.16500       2.1799227     0.013758657
       307.99998       293.00090       98664.097       13109.809       3.0805000       3.9435000      -1.4025000       343.60100       2.2196371     0.018579851
       312.99999       293.12145       98670.308       13128.852       3.4157500       3.3287500     -0.34025000       343.84100       2.1181543     0.011833598
       318.00001       293.28435       98673.691       13195.274       1.7075000       3.0605000      0.39050000       343.66800       2.5656999     0.015814115
       322.99998       293.36666       98670.308       13212.708       2.0905000       2.1337500      0.40375000       345.27700       2.4145208     0.016756661
       328.99999       293.40556       98657.364       13217.181       3.6112500       1.0277500   -0.0077500000       346.10900       2.3447549     0.015227607
       334.00000       293.42772       98649.522       13265.072       4.3122500       1.7232500     0.044500000       344.53900       2.3850703     0.012671632
       338.99997       293.42780       98631.970       13308.528       2.3795000       2.6242500      0.94700000       344.94000       3.0600212     0.012182190
       343.99998       293.37052       98632.317       13349.468       3.4555000       1.0835000      0.61475000       345.86900       2.8613579     0.028282652
       349.00000       293.27054       98643.079       13459.894       3.7320000       2.3357500      0.36600000       344.27400       2.7595753     0.013686137
       353.99997       293.19145       98649.888       13459.678       4.8047500       1.5727500     -0.95300010       344.47700       3.0723418     0.010419309
       358.99998       293.07834       98666.706       13394.272       4.6090000       1.3025000      0.33725000       344.62300       3.5331140     0.016158431
       364.00000       292.94959       98670.196       13316.942       4.2692500       1.5105000     -0.47675000       344.62300       2.4961406     0.012285584
       368.99997       292.82933       98667.800       13190.587       2.6537500       3.1880000     -0.15350000       345.60100       2.6509503     0.012110096
       373.99998       292.70127       98663.160       13094.157       3.3925000       1.1280000     -0.38675000       344.50100       2.5846313     0.017095316
       379.00000       292.54171       98651.614       12982.425       4.0592500       3.4677500      0.10525000       344.11900       2.2627516     0.012787555
       383.99997       292.36438       98644.621       12876.744       3.2170000      0.97050010    0.0085000000       344.90500       3.3671495     0.012197207
       388.99998       292.15961       98634.437       12768.574       4.9140000      0.75200000      0.21350000       343.94300       2.8947000     0.015094064
       394.00000       292.05527       98632.130       12699.798       3.8587500       2.5270000     -0.23650000       344.24300       2.7924114     0.016093257
       398.99997       291.88915       98631.960       12610.590       5.6607500       2.2457500      0.14175000       343.95300       2.3098643     0.022363428
       403.99998       291.94624       98638.472       12617.104       4.7485000      0.70450000      0.49700000       344.98100       3.1033578     0.011715455
       408.99999       292.22808       98654.525       12711.582       5.1665000       2.0030000     -0.17075000       343.26700       2.9527806     0.012891428
       415.00000       292.47126       98670.389       12791.329       4.3792500       1.6515000     -0.49375000       343.09400       2.8578832     0.011900904
       419.99997       292.58751       98674.081       12852.208       2.7582500       1.3777500      0.59625010       344.69600       2.6909109     0.013717989
       424.99999       292.62991       98670.385       12903.508       3.4905000      0.31875000      0.80600010       345.54300       2.3240646     0.011370104
       430.00000       292.55032       98656.354       12925.420       1.7160000       1.1915000      0.62050000       345.57900       2.4350078     0.023141559
       434.99997       292.56001       98648.148       12980.531       3.1410000       1.2430000     0.010250000       345.26500       2.2879070     0.012175608
       439.99999       292.55576       98631.727       13055.206       3.6185000       1.6262500      -1.0540000       345.14200       2.1860492     0.011763301
       445.00000       292.55370       98639.496       13127.864       5.2260000       2.1872500     0.031250000       343.45000       2.6171425     0.012847640
       449.99997       292.51746       98644.258       13153.998       5.6645000       2.8960000     -0.60625000       343.55600       2.6727204     0.014382718
       454.99999       292.33843       98658.879       13100.295       4.4585000      0.84725000    -0.049750000       345.56200       2.9127887     0.011605326
       460.00000       292.27451       98667.125       13092.846       3.9762500       3.2437500     -0.97050010       344.36100       2.9113386     0.013631491
       464.99997       292.30498       98673.299       13098.563       2.4865000       1.3872500     -0.25875000       343.98800       2.4403534    0.0089386130
       469.99999       292.29366       98672.805       13083.298       4.0762500       1.6640000     -0.33325000       343.86600       2.4758662     0.010010961
       475.00000       292.29463       98667.381       13070.347       3.2835000       1.3167500     -0.45925000       344.20200       2.5992235     0.020232532
       479.99997       292.37061       98656.415       13098.991       2.7435000       1.0505000      0.56075000       345.62000       2.5376575     0.015353907
       484.99998       292.34624       98648.219       13054.355       3.4205000       1.4727500     -0.47000000       344.81600       2.7313772     0.012130014
       490.00000       292.25052       98632.987       12956.681       3.9152500       4.9215000     -0.72400000       343.96200       2.2507729     0.012704451
       494.99997       292.16973       98630.392       12849.779       3.6997500      0.36475000     -0.70075010       344.56900       2.4719829     0.013488765
       499.99998       292.13629       98632.802       12808.752       5.3327500       1.9292500     -0.15100000       343.07700       2.8296530    0.0074861353
       505.99999       292.11567       98649.459       12812.972       5.2967500       2.8357500      -1.7535000       343.71100       3.1976059     0.010044792
       511.00000       292.13952       98657.194       12840.648       4.4440000       1.1445000      -1.0370000       344.82800       2.8510937     0.012747525
       515.99998       292.27187       98667.305       12960.877       4.0327500       1.4837500      0.22000000       344.21000       2.7972414     0.011216961
       520.99999       292.31916       98672.836       13022.339       3.9860000       1.5132500     -0.22400000       345.24900       2.2245757     0.010237005
       526.00000       292.34578       98671.771       13046.765       3.5117500       1.6942500      0.21775000       344.64200       2.8833149     0.016688268
       530.99998       292.36350       98670.696       13101.273       1.3447500      0.27475000       1.4400000       345.51500       2.6583962    0.0094864585
       535.99999       292.30956       98670.953       13155.981       2.4977500       2.0207500    -0.084250000       344.81400       3.5130951     0.012333037
       541.00000       292.29062       98665.555       13198.292       2.8175000       1.4570000      0.37500000       345.14700       3.2222810     0.012605739
       545.99998       292.32813       98646.708       13301.300       3.4842500       1.3055000      -1.3152500       343.82000       2.8504932     0.011239171
       550.99999       292.30538       98642.302       13318.919       3.8775000       2.8537500     -0.89300010       342.80000       2.9254858     0.013625161
       556.00000       292.21766       98641.853       13235.004       3.6987500       1.7377500     -0.37150000       344.16500       2.3629316     0.012751988
       560.99997       292.18900       98643.274       13205.498       2.3045000       1.9702500   -0.0017500000       344.16400       2.7484957     0.012822940
       565.99999       292.16717       98662.172       13174.593       3.5730000       1.3200000      0.34450000       344.24700       2.9701998     0.013211694
       571.00000       292.13834       98668.662       13123.381       3.8215000       2.4157500      0.28275000       344.22100       2.6644626     0.012085737
       575.99997       292.14175       98668.815       13078.569       4.2305000       1.6567500     -0.25025000       343.26500       2.3398482     0.015203628
       580.99999       292.15197       98666.512       13047.989       2.6575000       2.0067500      0.18650000       344.35800       2.7881810     0.014734568
       586.00000       292.15880       98655.925       12998.258       2.6812500       2.4545000     -0.53500000       344.07800       2.4930698     0.013131627
       590.99997       292.14907       98648.942       12950.534       3.2825000       2.2602500     -0.56975000       343.25100       3.0594684     0.015531954
       596.99998       292.15688       98636.188       12913.900       2.9575000       1.9452500     -0.32325000       343.70700       2.4440390     0.015898588
       601.99999       292.15311       98632.394       12900.567       1.9220000       1.3912500    -0.078500000       344.12500       2.4048838     0.013012736
       607.00001       292.11840       98630.392       12879.110       3.0647500       2.0440000      0.54550000       343.87900       2.3369071     0.016648496
       611.99998       292.08845       98634.927       12870.058       3.3852500       1.7715000     -0.53575000       343.59900       3.2472025     0.019517767
       616.99999       292.04937       98651.099       12883.588       3.5975000       2.2080000     -0.17925000       343.54600       3.7107176     0.018725325
       622.00001       292.04334       98658.765       12911.940       5.2950000       2.6380000     -0.30400000       343.18900       2.5810513     0.013630571
       626.99998       292.04339       98672.673       12950.628       5.1322500       2.9827500     -0.24775000       343.06200       2.7593490     0.013750253
       631.99999       292.04716       98673.476       12981.581       4.3760000       2.0492500      0.10475000       342.84700       2.5955947     0.019146853
       637.00000       292.09535       98660.143       13033.717       3.2297500       1.6172500    0.0087500000       343.47200       3.2111762     0.016600280
       641.99998       292.11128       98652.826       13079.003       4.5917500       4.4015000     -0.43025000       343.39800       3.8059400     0.018047554
       646.99999       292.11335       98636.701       13128.811       2.3832500       1.1722500     -0.28700000       343.53100       2.5806954     0.015082679
       652.00000       292.09996       98631.226       13141.656       3.2007500       1.6670000     0.023250000       343.67600       2.6973366     0.017351364
       656.99998       292.06324       98631.721       13142.526       3.5200000       2.3710000     -0.16375000       343.78400       2.2640258     0.015433160
       661.99999       292.04330       98634.882       13139.342       1.0035000       1.6160000       1.8910000       344.30300       2.1653510     0.016284845
       667.00000       292.01872       98646.085       13099.225       3.2215000       4.5615000     -0.25675000       343.40000       2.6486620     0.017903367
       671.99998       291.98867       98653.137       13066.538       3.9297500       3.4537500     -0.20100000       343.35200       2.2846873     0.013463788
       676.99999       291.96142       98664.448       13042.313       3.4452500       1.5192500     -0.12000000       344.03100       2.1450508     0.017889969
       682.00000       291.94130       98668.405       13014.524       4.7545000       2.0810000     -0.27925000       343.66400       2.4271098     0.015544569
       687.99997       291.90095       98668.222       12956.089       4.3987500       3.8760000      -1.1600000       343.19500       2.6529886     0.017961322
       692.99998       291.88744       98664.341       12929.915       4.5007500       3.7302500     -0.43350000       343.03800       2.6697104     0.019067487
       698.00000       291.88850       98653.416       12899.647       2.8697500       1.6015000      0.85000000       343.54400       2.4293579     0.017705773
       702.99997       291.90503       98646.443       12918.310       2.3120000       2.2287500      0.29150000       343.40900       2.8961418     0.018607311
       707.99998       291.94240       98632.980       12971.772       3.4225000       1.4147500      0.54575000       343.35500       2.7898054     0.018281956
       713.00000       291.96260       98633.163       13018.206       2.0695000       3.3675000     -0.41425000       343.60600       2.8188168     0.016874957
       717.99997       291.99989       98641.959       13105.892      0.63500010       2.3247500      0.22625000       343.44500       2.4516141     0.017947490
       722.99998       292.01391       98648.146       13165.797       3.9635000       3.9400000     -0.10400000       343.15500       2.3771028     0.018013799
       727.99999       292.00030       98664.506       13200.144       2.6292500       3.3610000    0.0057500000       343.23300       2.4053427     0.016936804
       733.00001       292.00042       98670.639       13256.196       1.1900000       1.9062500      0.65775000       343.50100       2.8364925     0.020944520
       737.99998       291.98869       98671.303       13334.123       2.2820000       2.4385000     -0.44925000       343.05200       2.9983374     0.019781974
       742.99999       292.00465       98671.051       13379.308       2.5032500       3.2107500     -0.61100000       342.93600       2.9229760     0.018445088
       748.00001       292.05316       98669.755       13434.985       1.2050000       3.0717500      -1.4450000       343.08500       2.6149569     0.016608440
       752.99998       292.05702       98662.845       13440.405      0.92250000       4.0667500       1.3442500       343.48100       2.3222519     0.017871408
       757.99999       292.06818       98647.810       13407.785       1.8590000       2.1782500     0.040750000       343.99900       2.6918279     0.021077015
       763.00001       292.04594       98640.390       13364.741       1.4820000       1.0627500      0.34800000       343.90100       2.4164231     0.022883628
       767.99998       291.96922       98626.984       13279.128       3.1995000       4.2780000      -1.3545000       343.29100       2.9267982     0.020820243
       772.99999       291.91923       98627.602       13216.718       1.8912500       4.3465000      0.31700000       343.70500       2.6224990     0.020329868
       779.00000       291.85055       98643.364       13127.897      0.95750000       3.5637500     0.023000000       343.96000       2.2753014     0.018785171
       783.99997       291.81924       98651.253       13080.529       1.8355000       7.2797500     -0.84450010       343.29200       2.5571836     0.015776522
       788.99999       291.79750       98665.748       13050.006       3.4467500       4.4712500     -0.68050000       343.42300       2.3918897     0.019201295
       794.00000       291.78651       98671.094       13020.216       4.0770000       5.2440000      0.59750000       343.24800       2.5709475     0.018362719
       798.99997       291.80001       98673.330       12997.386       3.8952500       3.4955000      0.75650010       343.47900       2.1827790     0.017646211
       803.99998       291.80014       98668.838       12992.533       4.2457500       2.9512500      0.30150000       343.23200       2.4217664     0.017994593
       809.00000       291.80917       98657.047       12993.569       4.6017500       4.6117500     -0.53375000       342.78600       2.3642802     0.017840065
       813.99997       291.79064       98649.185       13012.482       2.1765000       4.7635000      0.72050010       343.31700       2.4009752     0.019398285
       818.99998       291.75401       98634.689       13061.829       1.7905000       4.9122500     0.066500000       343.16900       2.4504775     0.019325682
       824.00000       291.73422       98629.351       13086.199       3.9835000       3.5577500      -1.1567500       342.97000       2.6243459     0.018698764
       828.99997       291.68788       98627.510       13102.990       2.3720000       2.1390000      0.11950000       343.60900       2.9842277     0.019406219
       833.99998       291.69497       98632.007       13138.466       2.9747500      0.96450010     0.090750000       343.70200       2.7092252     0.016139570
       839.00000       291.74573       98643.171       13177.235       2.4040000       4.0820000      0.71925000       343.60000       2.7505563     0.017637184
       843.99997       291.76621       98651.256       13213.238       2.5905000       1.9275000       1.0885000       343.83000       2.7345580     0.018597019
       848.99998       291.80239       98665.685       13269.495       4.7485000       4.1750000     -0.52425000       343.22300       2.7447685     0.016786484
       853.99999       291.81380       98671.133       13296.676       4.1060000       5.2077500     -0.60550000       342.93300       3.2325492     0.017173875
       858.99997       291.78178       98673.260       13294.056       4.0402500       3.5417500      0.18450000       343.14500       2.7000070     0.018249987
       863.99998       291.81895       98668.842       13323.143       3.1970000       2.4777500       1.0302500       343.40300       2.2945821     0.016915505
       869.99999       291.90027       98656.043       13370.153       2.5320000       4.4275000     -0.93050000       343.47900       2.5290098     0.015566261
       875.00000       291.94016       98648.013       13388.883       6.5922500       4.9305000     -0.87350000       342.97800       2.2017334     0.016898520
       879.99997       292.01329       98632.972       13420.068       4.8622500       2.4030000      0.20800000       343.05900       2.5140572     0.015969241
       884.99999       292.03057       98630.553       13414.883       3.3567500       3.8402500     -0.71000000       343.23700       2.7561829     0.013495484
       890.00000       291.99951       98633.512       13376.681       4.5340000       5.8622500     -0.24375000       343.33200       2.4537106     0.015948049
       894.99997       291.98500       98644.869       13331.748       4.3645000       5.6090000      -2.0557500       343.29100       2.4092924     0.016084509
       899.99999       291.99354       98651.081       13319.203       4.9860000       4.3005000     0.096750010       343.12100       2.1990257     0.014744524
       905.00000       292.03027       98655.959       13340.306       4.3540000       3.2887500      0.32425000       343.35500       2.2517082     0.015055187
       909.99997       292.05004       98661.067       13344.785       2.1160000       2.1860000      0.78800000       343.77600       2.3412480     0.015968354
       914.99999       292.06987       98667.828       13362.128       3.1402500       2.1570000      0.13550000       343.66500       2.6758346     0.014403879
       920.00000       292.09949       98667.245       13378.833       3.5555000       4.8595000     -0.83375010       343.62700       2.3129227     0.015013421
       924.99997       292.12912       98662.967       13390.437       4.0770000       3.7305000     -0.53525000       343.30800       2.2377680     0.013818058
       929.99998       292.15569       98656.903       13392.666       2.9087500       4.2767500    -0.076750000       343.38400       2.5116149     0.015197443
       935.00000       292.15450       98649.596       13371.574       2.7260000       3.7707500     -0.62625000       343.09400       2.2673249     0.015374180
       939.99997       292.15644       98633.724       13346.051       3.3270000       5.0720000     -0.28550000       342.91600       2.6437729     0.015936666
       944.99998       292.12966       98627.279       13310.965      0.41475000       3.6190000      0.31025000       343.65800       2.3193781     0.013190301
       950.00000       292.09939       98627.636       13275.608       1.3902500       1.8965000    -0.050500000       343.05200       2.3486582     0.016591020
       954.99997       292.08479       98637.984       13261.527      0.29175000       1.0645000      0.47925000       343.92500       2.0666688     0.016006274
       960.99998       292.04897       98646.383       13233.078       2.7930000       5.0337500     -0.38650000       343.08000       2.2156239     0.016348422
       965.99999       291.94748       98660.788       13171.117       1.3265000       3.5555000     -0.14200000       343.29500       2.3411337     0.017675283
       971.00000       291.93196       98668.372       13148.788      0.98500010       3.6212500      0.73975000       343.14500       2.2004166     0.015521325
       975.99998       291.96385       98670.699       13150.678       1.3607500       2.6847500      0.13400000       343.67400       2.1440393     0.016628603
       980.99999       291.99633       98671.456       13151.460      0.88150010       3.5347500     -0.87225000       343.49800       3.6060249     0.019820313
       986.00000       292.08753       98671.017       13136.251       1.4477500       3.5337500     0.044750000       343.39800       2.3621566     0.015708675
       990.99998       292.16789       98665.641       13186.238       2.3195000       3.8140000      0.49100000       343.57200       2.2214811     0.017947702
       995.99999       292.27324       98650.948       13312.822       4.1630000       2.2400000      0.16150000       343.60100       2.2053557     0.017972472
       1001.0000       292.32009       98643.107       13380.490       4.0197500       4.3290000    -0.070000000       343.26900       2.3162944     0.015184831
       1006.0000       292.36097       98628.970       13474.508       2.1505000       4.2075000      0.84175000       343.18300       2.3744853     0.017383591
       1011.0000       292.36754       98626.697       13550.281       3.5435000       5.1875000     -0.62125000       343.18200       2.5754940     0.020097596
       1016.0000       292.29113       98638.661       13581.366       3.2955000       4.4492500     -0.13175000       343.14900       3.1868212     0.021748414
       1021.0000       292.24096       98645.756       13593.702       2.0525000       3.8517500    -0.061250000       343.69200       2.3802628     0.018261424
       1026.0000       292.16208       98660.562       13593.137       1.4860000       3.0332500       1.3215000       343.63300       2.2738062     0.017756807
       1031.0000       292.13421       98668.274       13606.814       2.7760000       2.9040000      0.16475000       343.86700       2.1794563     0.019528266
       1036.0000       292.15855       98669.268       13612.485       2.5847500       2.6185000       1.3760000       343.71500       2.1053015     0.015374797
       1041.0000       292.14870       98671.169       13589.274       1.9220000       3.4262500       1.6612500       343.69900       2.6697370     0.017638651
       1047.0000       292.16953       98674.184       13580.111       4.2440000       3.2455000      -1.2292500       343.22200       2.4033242     0.015201373
       1052.0000       292.15189       98670.078       13538.010       3.3660000       2.6062500     -0.54225000       343.57500       2.3222797     0.015030726
       1057.0000       292.06763       98660.618       13420.694       2.4597500       2.1600000     -0.44525000       343.34200       2.9330246     0.014818835
       1062.0000       292.03146       98653.237       13350.049       4.6847500       3.4567500      0.21900000       343.49700       2.5432981     0.015008450
       1067.0000       292.01847       98636.843       13286.306       2.3267500       3.5015000      0.41800000       343.21100       2.1884614     0.014238016
       1072.0000       291.98843       98631.356       13238.853      0.76675000       2.9870000      0.68050000       343.58700       2.3625767     0.014591791
       1077.0000       291.94896       98632.204       13193.587       2.7532500       3.6640000     -0.14850000       343.34400       2.9953390     0.018097546
       1082.0000       291.94260       98635.365       13185.213       3.8822500       2.7842500     -0.17675000       343.31400       2.4234844     0.013881346
       1087.0000       291.95594       98645.991       13224.517       1.5885000       3.0492500      0.25975000       343.39500       2.6273418     0.012974541
       1092.0000       291.94614       98652.866       13233.297       2.0110000       3.2562500    -0.016750000       343.26700       2.7435682     0.013441037
       1097.0000       291.96940       98663.052       13250.833       2.7560000       4.4580000      0.59250000       343.29400       2.5436883     0.012296292
       1102.0000       291.95180       98668.247       13269.409       3.8157500       5.0000000     -0.55975000       342.81700       2.2985391     0.011211340
       1107.0000       291.88151       98671.197       13284.813       4.1427500       3.9892500      0.35750000       343.17600       2.1866353     0.013407301
       1112.0000       291.83135       98671.449       13278.229       3.9975000       4.1240000      0.56750010       343.13500       2.4944810     0.011098753
       1117.0000       291.78012       98665.304       13281.043       3.4945000       4.5532500     -0.76450000       342.88100       2.4735075     0.011539672
       1122.0000       291.72977       98664.720       13259.916       1.3950000       3.1920000      0.29950000       343.14000       2.6984592     0.012147529
       1127.0000       291.66629       98664.677       13181.414       2.9780000       3.6392500      0.86875000       342.99700       3.0103605     0.012667054
       1132.0000       291.62978       98665.082       13147.199       4.0200000       2.7925000     -0.54775010       342.78600       2.2021817     0.010768802
       1138.0000       291.61134       98674.708       13142.990       3.0267500       2.9477500      0.19200000       343.07400       2.5869548     0.011726285
       1143.0000       291.58137       98669.607       13104.460       3.7090000       4.5355000     -0.42850000       343.12100       3.0905933     0.012340409
       1148.0000       291.55869       98650.160       13061.319       4.0662500       3.8890000     -0.41450000       342.88900       2.8330065     0.013321565
       1153.0000       291.53857       98646.977       13020.077       3.3782500       4.1562500     -0.78825000       343.06100       2.3286552     0.010270118
       1158.0000       291.49066       98642.293       12929.434       4.1665000       4.4720000     -0.26300000       342.78900       2.1241997     0.010564865
       1163.0000       291.49359       98644.463       12914.234       2.4565000       4.1767500     -0.57425000       343.06700       2.3590327     0.011388276
       1168.0000       291.54321       98664.653       12947.943       3.0155000       4.1815000     -0.28300000       343.02100       2.2721797     0.011121969
       1173.0000       291.56338       98670.862       12972.720       2.3817500       2.4695000    -0.032000000       343.07100       2.5602905     0.010701257
       1178.0000       291.61012       98671.363       13035.107       3.8672500       4.1270000     0.036250000       343.06700       2.4891240     0.012075822
       1183.0000       291.60726       98671.087       13070.412       2.0980000       3.6012500      0.35325000       343.01900       2.0735472     0.012515458
       1188.0000       291.54653       98669.611       13085.607       3.3412500       3.2610000      -1.0557500       343.00700       2.2993307     0.011281482
       1193.0000       291.54258       98662.855       13125.562       3.7272500       4.6345000   -0.0037500000       343.05700       2.6495216     0.011817126
       1198.0000       291.54206       98648.148       13186.618       3.6675000       3.2450000      0.34425000       343.26500       2.6007132     0.010959999
       1203.0000       291.54859       98640.799       13216.388       1.7562500       3.1545000      0.37700000       343.53000       2.7117165     0.012892172
       1208.0000       291.59866       98627.362       13261.416       2.3337500       2.9970000     -0.19050000       343.11400       2.8153817     0.013887098
       1213.0000       291.61251       98628.107       13260.264       3.4847500       3.9982500      0.57375000       343.32000       2.2347189     0.011901486
       1218.0000       291.59992       98643.167       13208.106       3.6667500       3.1892500      0.48225000       343.25800       2.4203925     0.012052206
       1223.0000       291.59981       98649.179       13175.716       1.8685000       2.5112500      0.37950000       343.22200       2.3642177     0.012315764
       1229.0000       291.60850       98660.237       13123.534       3.3442500       3.7832500     -0.33575000       342.92900       2.5587360     0.012119563
       1234.0000       291.58968       98665.412       13080.045       4.2365000       4.1010000     -0.32050000       343.00000       2.4276485     0.012470428
       1239.0000       291.55449       98665.881       13032.953       3.2575000       2.8870000      0.40700000       343.44500       2.6650825     0.012421909
       1244.0000       291.53419       98666.059       13000.214       4.3232500       2.4117500      0.39525000       343.08300       2.7882752     0.013241516
       1249.0000       291.49754       98665.945       12961.220       4.2342500       4.2180000     -0.39400000       343.07700       2.9979800     0.011884677
       1254.0000       291.48636       98665.122       12949.397       3.0255000       2.0497500      0.46100000       343.39400       3.1313375     0.013025433
       1259.0000       291.50880       98662.415       12961.403       2.0627500       1.4165000      0.17450000       343.49900       2.3898212     0.013500612
       1264.0000       291.49016       98655.633       12969.357       2.7522500       2.2812500     -0.55500000       343.14500       2.3882163     0.013682476
       1269.0000       291.45404       98645.634       12989.994       2.7567500       3.9060000      0.91525010       343.11800       2.4592581     0.012194564
       1274.0000       291.43431       98641.575       13002.446       2.8260000       2.5882500      0.57075000       343.09500       2.1302510     0.012216751
       1279.0000       291.37947       98632.184       13003.303       3.4027500       3.4125000     -0.17000000       342.89200       2.1875693     0.011921030
       1284.0000       291.40540       98634.465       13041.102       2.8860000       1.9857500     -0.40575000       343.17300       2.5479348     0.013732291
       1289.0000       291.49928       98648.693       13101.604       2.9030000       2.2480000     -0.52950000       343.03100       2.3608479     0.013075573
       1294.0000       291.52056       98655.740       13137.491       2.0770000       3.5340000      0.32250000       343.13500       3.0664729     0.012621187
       1299.0000       291.56836       98665.395       13201.292       2.4815000       2.0692500     -0.15650000       343.07300       2.3599114     0.013346315
       1304.0000       291.55245       98669.687       13213.346       2.2510000       4.9112500     -0.98500010       342.90200       2.7041364     0.016790205
       1309.0000       291.44082       98670.561       13172.386       1.5847500       4.0992500     -0.20300000       343.09800       2.4597906     0.012538551
       1314.0000       291.42792       98671.703       13172.034       3.2112500       2.2367500      0.72775010       343.00700       2.2228462     0.011836915
       1320.0000       291.44372       98671.058       13176.225       2.1760000       2.5572500     -0.34000000       343.20000       2.4071438     0.015033180
       1325.0000       291.45474       98669.004       13167.073       1.4055000       2.3442500      0.24300000       343.26800       2.7942501     0.013637511
       1330.0000       291.49344       98667.399       13160.214       1.2542500       2.1105000      0.23300000       343.36300       2.2346860     0.012335812
       1335.0000       291.54519       98658.924       13168.576       2.2512500       1.8527500      0.10525000       343.27700       2.3875105     0.012397701
       1340.0000       291.60041       98644.630       13169.475       1.9035000       2.8810000    -0.086000000       343.27800       2.1939236     0.014199869
       1345.0000       291.67065       98630.199       13188.421       2.0537500       2.6837500      0.75725000       343.40600       2.6053073     0.012722693
       1350.0000       291.71365       98626.319       13205.204       1.6467500       2.4515000     -0.55900000       343.25900       2.3884291     0.014887221
       1355.0000       291.70013       98638.003       13200.139       1.9122500       3.3072500       1.0652500       343.22800       2.5409135     0.012632721
       1360.0000       291.70013       98644.902       13207.301       2.1112500       2.4150000    -0.043500000       343.51800       2.5097267     0.013330301
       1365.0000       291.70012       98658.717       13238.363       2.5925000       3.4612500     -0.88450000       343.19500       2.6147421     0.013912245
       1370.0000       291.70024       98667.022       13255.544       1.8787500       2.0317500      0.21350000       343.35300       2.3577659     0.014296655
       1375.0000       291.70035       98671.633       13267.756       1.2787500       2.6675000      0.64725010       343.08800       2.1862378     0.013440279
       1380.0000       291.69326       98670.876       13272.975       3.0422500       3.2817500      0.99950000       343.04900       2.9382699     0.012782005
       1385.0000       291.71479       98671.725       13290.064       4.0830000       4.1257500     -0.64850000       342.61600       2.7652940     0.013015204
       1390.0000       291.75022       98671.021       13306.989       2.9012500       4.3277500     -0.67400000       342.93100       2.3301646     0.012965723
       1395.0000       291.78499       98670.183       13317.178       4.5877500       3.3097500     -0.98550000       342.66800       2.4159857     0.014672217
       1400.0000       291.80661       98666.451       13328.508       3.2460000       2.5265000      0.19950000       343.26600       2.2801749     0.014663096
       1405.0000       291.83000       98657.303       13351.462       4.4897500       4.0787500      -1.4800000       342.94300       2.1604221     0.014403340
       1411.0000       291.80604       98648.983       13332.343       2.3072500       1.7132500    -0.041750000       343.34100       2.6526890     0.013111298
       1416.0000       291.74872       98637.595       13292.363       2.6522500       1.4075000       1.0107500       343.45200       2.9572792     0.012337489
       1421.0000       291.69742       98633.092       13256.450       1.7030000       5.2700000      0.53775000       342.84000       2.7126882     0.012674340
       1426.0000       291.58576       98631.994       13181.535       2.4562500       2.0440000     -0.19875000       343.60000       2.4322342     0.012958219
       1431.0000       291.52780       98634.424       13127.117       1.9347500       2.3112500      0.26600000       343.20400       2.4675275     0.018205172
       1436.0000       291.52338       98644.708       13091.047       1.9932500       3.1020000    -0.083250000       343.44700       2.6532699     0.014520478
       1441.0000       291.49329       98651.653       13056.440       3.2480000       3.7155000     -0.25975000       342.94100       2.3612526     0.013475193
       1446.0000       291.45186       98659.064       12991.692       2.7020000       3.4237500      0.10150000       343.34000       2.2258919     0.017632830
       1451.0000       291.44345       98667.043       12986.092       4.0450000       2.4227500      0.23025000       343.16400       2.2079301     0.017062676
       1456.0000       291.44379       98679.003       13037.603       3.8437500      0.95025000       1.4255000       343.09100       2.4024654     0.015778682
       1461.0000       291.44488       98682.638       13065.969       4.2230000       1.9690000      0.22300000       342.74400       2.2777778     0.013415810
       1466.0000       291.46100       98683.182       13108.778       3.6425000       1.3747500      0.11925000       343.12000       2.6232618     0.015632147
       1471.0000       291.50238       98681.815       13169.262       1.4640000      0.67075000      0.62050000       343.78900       2.1510443     0.017127410
       1476.0000       291.55382       98671.896       13224.169       1.7672500       1.3442500      0.54375000       343.20300       2.3894566     0.014777424
       1481.0000       291.60540       98663.896       13286.721       3.8987500       2.2875000     -0.55300000       343.05200       2.7096351     0.016982787
       1486.0000       291.71566       98655.638       13405.780       2.5860000       1.7880000      0.32100000       342.93500       2.8575897     0.016978608
       1491.0000       291.77426       98648.590       13479.174       3.9907500       2.6975000     -0.16300000       342.90000       2.6462975     0.016319598
       1496.0000       291.80460       98637.323       13538.346       3.2525000       2.9005000     -0.31225000       343.02300       2.7256117     0.015096767
       1502.0000       291.81041       98632.254       13560.707       3.5482500       2.0080000     -0.53775000       343.18800       2.7519872     0.012917697
       1507.0000       291.77575       98631.762       13543.406       4.7597500       2.9730000     -0.72800000       343.01500       2.4160241     0.011898475
       1512.0000       291.74152       98634.954       13506.932       3.4632500       3.2905000     -0.78625010       343.09700       2.5645319     0.013220621
       1517.0000       291.64227       98646.181       13390.849       2.8840000      0.99550000      0.44775000       343.24800       2.6540299     0.015344709
       1522.0000       291.63395       98653.251       13356.624       2.5115000       1.8962500     -0.21625000       343.27800       2.4018647     0.017362391
       1527.0000       291.69505       98660.639       13371.466       2.3680000       1.5222500     -0.32575000       343.39600       2.4769968     0.014039987
       1532.0000       291.70521       98668.656       13342.456       3.5430000       2.4392500     -0.61900000       342.61300       2.7786521     0.019539918
       1537.0000       291.75262       98679.956       13331.218       3.5535000       1.7472500       1.3202500       343.36300       2.6545745     0.015635346
       1542.0000       291.76492       98682.736       13312.810       3.1272500       1.3377500      0.28075000       343.58400       2.6514039     0.015082722
       1547.0000       291.71824       98685.664       13244.891       1.7127500       2.0845000     0.030500000       343.46500       3.3828734     0.016656503
       1552.0000       291.68854       98680.879       13209.211       2.8037500      0.86200000      0.44250000       343.39200       2.8739580     0.016417650
       1557.0000       291.66334       98660.303       13193.933       1.5372500       1.6137500       1.4237500       343.89800       2.7858288     0.018534148
       1562.0000       291.64340       98651.114       13198.289       6.0265000       2.8092500      0.42600000       342.85000       2.9000094     0.016955762
       1567.0000       291.60541       98641.947       13214.585       3.4107500       1.1687500      0.70325010       343.23100       3.1488344     0.013879225
       1572.0000       291.58903       98637.023       13230.338       4.0262500       5.0140000      -1.1800000       342.85700       3.0131039     0.016178786
       1577.0000       291.60004       98640.165       13277.590       3.6730000       2.0200000     -0.59275000       343.13600       2.3585055     0.013701642
       1582.0000       291.60004       98640.105       13309.277       2.3890000       1.4042500      0.77625010       343.56100       2.6970106     0.016211516
       1588.0000       291.59979       98638.043       13325.494       2.9425000       2.6207500    -0.027250000       343.29100       2.5206123     0.018293992
       1593.0000       291.59968       98641.278       13351.822       2.8842500       2.6292500     -0.73425000       343.51900       2.1223427     0.015987741
       1598.0000       291.60009       98647.317       13399.942       3.2070000       4.4507500      -1.1227500       342.96000       2.3244397     0.012903348
       1603.0000       291.60004       98652.990       13417.803       2.9945000       2.4165000      0.53775000       343.53400       2.4385177     0.013913934
       1608.0000       291.58904       98664.222       13415.014       3.9270000       4.3692500     -0.50475000       343.36000       2.1058150     0.018218936
       1613.0000       291.60550       98668.995       13433.127       4.5900000       3.5742500     -0.76500000       342.86200       2.5753762     0.018838620
       1618.0000       291.64265       98670.197       13457.782       3.7532500       2.4860000     0.037250000       343.22000       2.0634174     0.013673998
       1623.0000       291.66276       98671.582       13457.363       3.4075000       2.0562500      0.12600000       343.23000       2.7678215     0.016867810
       1628.0000       291.69972       98670.097       13459.094       4.1980000       3.8562500     -0.12350000       342.89900       2.6320785     0.013242836
       1633.0000       291.71320       98669.965       13452.961       3.8237500       5.2375000     -0.13575000       342.88500       2.3465796     0.019090515
       1638.0000       291.70044       98673.778       13411.077       2.8127500       3.8530000      0.79550000       343.06400       2.1554090     0.018370791
       1643.0000       291.70055       98669.050       13396.043       2.8100000       3.0215000      0.30725000       343.11700       2.4011890     0.015728555
       1648.0000       291.70019       98659.308       13403.060       2.4545000       5.4837500    -0.076750000       343.16200       2.3432865     0.015944707
       1653.0000       291.70013       98651.662       13395.944      0.33225000       4.1682500     -0.35525000       343.19500       2.1455102     0.011397040
       1658.0000       291.69971       98636.388       13378.595      0.84525000       2.5140000      0.44625000       343.32800       2.3676618     0.015937036
       1663.0000       291.69954       98630.177       13375.383       1.2482500       4.7385000      -2.0935000       343.23700       2.0925110     0.017378740
       1668.0000       291.68885       98626.857       13382.000       1.4762500       3.0967500     -0.85175000       343.24400       2.1420347     0.018406872
       1673.0000       291.70494       98630.239       13378.683       3.8902500       6.0787500     -0.89775000       343.09200       2.1703308     0.016790101
       1679.0000       291.75524       98644.151       13373.559       2.2275000       1.1797500      0.94625000       343.48600       2.1342390     0.019276187
       1684.0000       291.75638       98650.090       13378.932       2.9135000       3.8012500      0.55750000       343.15700       2.4543474     0.014439754
       1689.0000       291.77662       98660.356       13383.114       1.7165000       3.4672500     -0.35950000       343.15200       2.7103920     0.013358871
       1694.0000       291.72937       98665.596       13386.717       1.4845000       2.7072500     -0.34925000       343.44800       2.4406824     0.016694473
       1699.0000       291.61383       98664.868       13408.515       3.8520000       5.3937500     -0.68700000       342.64400       2.1974366     0.018434998
       1704.0000       291.54346       98666.883       13398.471       4.8710000       3.0757500      0.17275000       343.04700       3.1506746     0.017094265
       1709.0000       291.44642       98670.575       13370.005       1.5800000       3.6270000      0.93925010       343.25400       2.2261694     0.018544890
       1714.0000       291.40387       98671.707       13339.047       4.6182500       3.4075000     -0.11425000       343.04700       2.1953656     0.017372198
       1719.0000       291.39710       98673.787       13294.442       3.5840000       6.0015000     -0.13525000       343.23400       2.1859117     0.013518766
       1724.0000       291.38601       98666.261       13254.927       2.2552500       5.5797500     -0.40150000       342.76300       2.6589715     0.016703310
       1729.0000       291.38217       98652.000       13198.819       2.5147500       4.8010000     -0.39925000       343.01800       2.1989444     0.015349171
       1734.0000       291.41931       98644.105       13179.682       4.3522500       3.7205000      0.11725000       343.13900       2.2729027     0.016095928
       1739.0000       291.49045       98626.303       13172.599       3.5632500       3.6092500     -0.34850000       343.09600       2.4990600     0.017387798
       1744.0000       291.53087       98627.535       13174.011       3.9727500       4.1292500     -0.53750000       342.88700       2.3826605     0.013793454
       1749.0000       291.59654       98646.467       13191.735       4.7175000       3.7650000     -0.46375000       342.51100       2.1860387     0.019629503
       1754.0000       291.63832       98646.740       13228.519       4.3247500       3.6467500    -0.080250000       342.96300       2.0896420     0.013603613
       1759.0000       291.64654       98646.141       13268.790       1.3885000       2.0637500      0.58575000       343.47100       2.1598766     0.016566703
       1764.0000       291.66659       98645.383       13338.777       3.0950000       3.2932500     0.035000000       343.19200       1.9640437     0.018357993
       1770.0000       291.71275       98632.184       13479.685      0.71450000       3.7805000     -0.78850000       343.07200       1.9086353     0.014336305
       1775.0000       291.70055       98635.742       13528.349       2.4085000       5.0070000     -0.28500000       342.54900       1.9297242     0.016840291
       1780.0000       291.65078       98650.070       13567.955       1.2510000       4.1880000     -0.86750010       342.77400       1.9185360     0.018370864
       1785.0000       291.63053       98657.121       13584.784       2.7510000       5.1020000     -0.99050000       342.69200       1.8900778     0.018576683
       1790.0000       291.60602       98666.493       13566.121       1.5330000       2.2845000      0.42375000       343.37300       1.8825903     0.016152247
       1795.0000       291.52405       98668.821       13504.058       2.6500000       2.5360000     -0.96550010       342.65400       1.9219802     0.017763073
       1800.0000       291.49217       98670.954       13469.108       2.9090000       3.1722500     -0.27900000       342.95700       1.8856676     0.015876918
       1805.0000       291.47474       98670.151       13426.366       1.4850000       3.1852500     -0.60050000       343.27100       1.8940381     0.018442244
       1810.0000       291.44405       98670.116       13370.515       2.8850000       4.0102500      0.11275000       343.29500       1.8540015     0.020582739
       1815.0000       291.44011       98671.921       13306.214       2.9155000       2.7502500      0.22750000       343.19300       1.8719182     0.022627298
       1820.0000       291.45004       98671.122       13278.852       2.2807500       2.1930000      0.30725000       343.22100       1.8626366     0.024458114
       1825.0000       291.45992       98669.087       13262.347       2.0540000       4.9272500     -0.80350010       342.78400       1.8823512     0.013039898
       1830.0000       291.43622       98666.675       13220.981       3.5645000       2.7385000     -0.47825000       342.68100       1.8906419     0.015393260
       1835.0000       291.46923       98660.345       13251.479       2.8397500       3.9102500     -0.24350000       343.16300       1.8657083     0.019673800
       1840.0000       291.55611       98650.262       13353.459       1.2482500       2.3777500      0.43750000       343.05000       1.8285394     0.020874575
       1845.0000       291.58506       98638.780       13383.513       2.7425000       2.0600000       1.4520000       343.16500       1.8399527     0.019372564
       1850.0000       291.60653       98633.310       13427.891       3.7740000       4.6452500     -0.89675000       342.79600       1.8409678     0.019370289
       1855.0000       291.59969       98634.829       13478.197       2.8065000       4.7377500     -0.24875000       343.01300       1.8460796     0.020177331
       1861.0000       291.59938       98634.881       13512.120       2.1342500       2.0652500       1.0002500       343.49100       1.8581534     0.016728070
       1866.0000       291.57032       98636.363       13531.748       2.6032500       3.7587500     -0.87625000       342.98600       1.8947988     0.013112479
       1871.0000       291.59305       98640.515       13565.920       2.2842500       2.9950000     -0.16375000       343.13100       1.9000177     0.018210124
       1876.0000       291.66824       98645.739       13612.070       1.4257500       1.6652500    -0.051000000       343.68100       1.8851085     0.016860521
       1881.0000       291.70840       98650.920       13617.712       2.8247500       3.9100000     -0.23850000       343.35000       1.8717497     0.018034443
       1886.0000       291.78102       98661.846       13617.853       3.4212500       3.1872500      0.31150000       342.42200       1.8845926     0.017209100
       1891.0000       291.81897       98667.648       13611.719       4.4192500       3.4182500     -0.79575000       342.70700       1.8927643     0.017924046
       1896.0000       291.81397       98669.467       13551.910       2.4657500       3.0790000      0.12275000       342.65700       1.9213432     0.017291698
       1901.0000       291.80261       98671.364       13515.159      0.83800010       2.5140000       1.0477500       343.44600       1.8963767     0.019102651
       1906.0000       291.80846       98670.146       13526.325       3.9677500       3.6500000     -0.16925000       342.92100       1.9348142     0.014570871
       1911.0000       291.75530       98670.107       13486.001       1.3312500       3.0770000       1.2297500       343.40300       1.9274635     0.018373445
       1916.0000       291.61007       98670.240       13404.555       3.0610000       3.0882500     -0.80575000       343.13800       1.8698861     0.015889959
       1921.0000       291.53115       98670.202       13337.972       5.3890000       1.9245000    -0.034250000       342.66700       1.8957147     0.017615926
       1926.0000       291.43122       98671.775       13229.655       4.4530000       2.6337500     -0.13875000       342.83100       1.8838671     0.016240700
       1931.0000       291.37461       98670.709       13166.194       3.1382500       2.2537500     -0.19725000       343.10900       1.8838567     0.015213574
       1936.0000       291.37204       98669.794       13109.611       3.0515000       1.9615000    -0.095500010       343.47200       1.8595526     0.017018033
       1941.0000       291.39418       98665.612       13105.903       1.4650000       1.9807500      0.30650000       343.78100       1.8797978     0.014974835
       1946.0000       291.48263       98655.757       13182.376       3.7962500       2.0565000      0.10175000       343.26200       1.8821875     0.014398727
       1952.0000       291.51538       98647.413       13221.461       3.1500000       1.6887500      -1.0275000       343.33400       1.8750292     0.012993136
       1957.0000       291.55254       98637.404       13277.100       2.1092500       2.2142500       1.3855000       343.12800       1.8761913     0.013904711
       1962.0000       291.56434       98632.131       13316.914       4.9072500       1.6032500      0.33075000       343.02600       1.8893881     0.016774962
       1967.0000       291.50553       98629.535       13303.180       4.9780000       1.7267500     0.043500000       343.17500       1.8905232     0.014894085
       1972.0000       291.48932       98629.299       13339.291       5.9372500       2.4012500     -0.50525000       342.59900       1.8597156     0.018288804
       1977.0000       291.50006       98634.162       13436.613       4.1515000       1.1705000     0.054250000       342.93700       1.9163434     0.015910054
       1982.0000       291.50006       98636.196       13475.704       6.7385000       1.3850000      0.30375000       342.94400       1.8949547     0.016855783
       1987.0000       291.47446       98637.117       13491.252       4.3627500      0.32325000       1.2890000       343.37200       1.8892771     0.018200883
       1992.0000       291.50197       98641.411       13521.123       5.0382500       1.9932500      0.24725000       343.11000       1.8755031     0.017524575
       1997.0000       291.57539       98644.153       13537.200       5.5372500       3.6637500      -1.2437500       342.70600       1.8788948     0.017913873
       2002.0000       291.61482       98652.277       13537.673       4.6087500       1.9310000      0.74925010       343.23000       1.8852545     0.015459467
       2007.0000       291.67612       98673.127       13538.278       4.8412500       2.8162500     -0.34075000       343.13100       1.8602032     0.018765344
       2012.0000       291.72218       98679.648       13545.244       4.3995000       2.1517500      0.81375000       343.02700       1.8868459     0.015217658
       2017.0000       291.73814       98678.434       13527.771       4.4775000       1.7705000      0.20225000       343.46600       1.8775304     0.017599735
       2022.0000       291.75827       98682.099       13522.331       4.0972500       1.1417500     -0.13600000       343.35100       1.8698995     0.014481499
       2027.0000       291.79516       98681.548       13541.342       3.7242500       1.4220000      0.24700000       343.27800       1.8741857     0.019282795
       2032.0000       291.81170       98679.572       13553.706       2.3710000       1.1037500      0.10200000       343.66100       1.8856204     0.014559080
       2037.0000       291.80045       98681.669       13552.085       3.5675000       2.8747500     -0.32975000       343.41700       1.8969015     0.018658048
       2043.0000       291.80059       98680.480       13563.027       2.8292500    -0.049250000       1.1870000       343.73000       1.8776841     0.016247603
       2048.0000       291.81171       98671.637       13604.285       5.4312500       2.8087500      -1.2480000       342.59400       1.8449210     0.016075803
       2053.0000       291.79523       98667.285       13597.572       3.2137500       2.5922500     -0.75975000       342.93300       1.8765971     0.016756592
       2058.0000       291.75787       98668.341       13557.072       3.1197500     -0.28325000      0.69050000       343.49700       1.8697170     0.017595652
       2063.0000       291.73784       98663.056       13542.860       2.7032500       3.1995000      0.72400000       343.21000       1.8703263     0.013731319
       2068.0000       291.71133       98649.505       13524.035       3.5522500       1.5182500      0.38000000       343.21300       1.8787755     0.017512882
       2073.0000       291.68133       98647.343       13492.789       3.8062500       1.6612500      0.33450000       343.45500       1.8823060     0.014660248
       2078.0000       291.66921       98652.335       13476.352       3.3860000       2.8745000     -0.29000000       342.81200       1.8530970     0.020342030
       2083.0000       291.63326       98648.759       13440.337       5.1775000       2.4467500     -0.26525000       343.24100       1.8675813     0.015061916
       2088.0000       291.54773       98647.600       13355.904       3.6257500       2.7620000     -0.55050000       342.93400       1.9067364     0.014452001
       2093.0000       291.53012       98644.428       13324.779       4.3855000       3.5177500     -0.36775000       342.77000       1.8530581     0.015200430
       2098.0000       291.54189       98629.419       13321.053       3.8855000       3.4110000     -0.51750000       343.27700       1.9063021     0.012569985
       2103.0000       291.54835       98626.978       13309.948       1.9852500       2.6307500    -0.052500000       343.36400       1.8430076     0.016796948
       2108.0000       291.59866       98634.514       13311.043       2.4015000      0.69575010     -0.20400000       343.34900       1.8674677     0.016371581
       2113.0000       291.61257       98636.557       13319.681       2.5195000       1.2247500     -0.27250000       343.32800       1.8824381     0.014944371
       2118.0000       291.60004       98637.983       13323.895       1.7027500       1.8515000      0.86875000       344.20100       1.8696653     0.016117508
       2123.0000       291.60004       98642.632       13347.686       2.5005000       1.8537500      0.55825000       343.44100       1.8482257     0.016642592
       2128.0000       291.58886       98647.601       13380.262       1.8122500       1.7747500     -0.84000000       343.50700       1.8771068     0.016240925
       2134.0000       291.60961       98654.446       13460.138       3.6930000       2.0407500     -0.30125000       343.22100       1.8824959     0.014370722
       2139.0000       291.64527       98665.534       13567.977       2.2397500       2.0725000      0.28425000       343.83300       1.8428479     0.015115775
       2144.0000       291.66552       98669.800       13626.044       2.9305000       1.5975000      0.48775000       343.00800       1.8670241     0.015461341
       2149.0000       291.68546       98670.578       13694.415       3.9402500       1.1102500     -0.24100000       342.65000       1.8811397     0.016328472
       2154.0000       291.73476       98671.724       13742.204       3.2957500      0.86950000    -0.083250000       342.78300       1.8782243     0.016058330
       2159.0000       291.78522       98668.491       13752.107       2.2035000      0.38150000      0.30300000       343.79900       1.8895572     0.016014398
       2164.0000       291.84408       98672.224       13764.376       4.6092500       1.8467500      0.34675000       343.12900       1.9055156     0.014400581
       2169.0000       291.95253       98679.518       13784.341       3.8080000       2.7792500     -0.77650000       342.73400       1.8636677     0.015348634
       2174.0000       291.99452       98683.488       13785.970       2.3835000       1.5015000     -0.21125000       343.20600       1.8410686     0.019365009
       2179.0000       292.01227       98692.729       13753.523       3.3437500       1.1672500     -0.21950000       343.25700       1.8466173     0.017623336
       2184.0000       292.00524       98691.300       13744.809       2.7845000       1.3432500      0.62875000       343.90000       1.8757198     0.015084233
       2189.0000       291.96457       98682.339       13754.193       2.3692500       1.7305000     -0.11575000       343.36300       1.8529723     0.015922215
       2194.0000       291.92566       98676.487       13734.820       2.2952500       1.5375000     -0.21500000       343.59100       1.8388792     0.016730888
       2199.0000       291.84336       98665.111       13691.973       2.4540000      0.67450000     0.027500000       343.98600       1.8309307     0.016730893
       2204.0000       291.83098       98660.838       13685.289       2.3670000       1.9325000    -0.031500000       343.79300       1.8651245     0.016163403
       2209.0000       291.86164       98661.601       13700.217       1.0480000       1.0230000      0.47625000       344.51300       1.8589940     0.016147417
       2214.0000       291.83312       98656.718       13659.140       2.3397500       1.1410000      0.30200000       343.54300       1.8801426     0.014558228
       2220.0000       291.80087       98650.299       13596.139      0.88150010       1.8825000     -0.32000000       344.33300       1.8681835     0.016875319
       2225.0000       291.79134       98646.328       13573.205       1.2800000       2.5940000      0.40825000       343.66800       1.8657177     0.014397113
       2230.0000       291.74334       98639.715       13510.306       1.7197500       2.1275000   -0.0052500000       343.75200       1.8427103     0.020024781
       2235.0000       291.72491       98635.863       13494.158       1.9932500       2.1570000    -0.087750000       343.69700       1.8670351     0.016629748
       2240.0000       291.74382       98635.151       13528.217       3.9840000       4.6002500     -0.23125000       343.27100       1.8714623     0.016453394
       2245.0000       291.77599       98631.637       13554.263       3.2850000       2.8970000      0.23700000       343.26500       1.8563910     0.016151269
       2250.0000       291.79500       98629.479       13581.524       2.8132500       2.8942500    -0.064500000       343.65300       1.8842692     0.016735353
       2255.0000       291.85616       98628.933       13657.516      0.45125000       1.9920000     -0.59075000       344.01700       1.8637744     0.017217639
       2260.0000       291.90699       98629.870       13714.886      0.40600000       2.1770000      0.19300000       343.60200       1.8529077     0.017959688
       2265.0000       291.90010       98633.279       13728.606       3.4080000       3.8795000      0.30275000       343.73700       1.8775393     0.015291731
       2270.0000       291.93716       98635.234       13776.895       1.4022500       3.3545000    -0.073000010       343.46100       1.8840007     0.019246024
       2275.0000       291.99874       98637.190       13841.250       3.0942500       3.5470000    -0.090000000       343.06800       1.8508069     0.020740132
       2280.0000       292.11095       98639.639       13926.545       3.5737500       4.9632500     -0.50375000       342.76700       1.9196385     0.017747581
       2285.0000       292.13869       98644.863       13989.324       3.3292500       3.7087500      -1.2542500       342.81000       1.8915547     0.016518072
       2290.0000       292.16233       98649.904       14085.272       1.2027500       3.9495000     0.095000010       343.01700       1.8816050     0.014086916
       2295.0000       292.12966       98661.737       14052.620       2.2640000       4.1292500      -1.1930000       343.14500       1.8852908     0.016818084
       2300.0000       292.09939       98667.216       14016.570       3.3977500       3.2445000      0.10225000       343.22800       1.8946065     0.017239116
       2305.0000       292.08479       98664.193       13902.384      0.25425000       3.4712500      0.26225000       343.14600       1.8538611     0.021408672
       2311.0000       292.04897       98665.331       13813.949       1.8140000       4.8782500     -0.81550000       342.80500       1.8801633     0.017617093
       2316.0000       291.99106       98666.049       13776.293       3.6340000       5.0690000     -0.89100000       342.45600       1.8984472     0.013214372
       2321.0000       291.94096       98665.042       13714.363       1.9117500       2.7990000      0.12375000       342.99300       1.8770656     0.017538280
       2326.0000       291.86159       98661.622       13629.919       2.4767500       2.8392500      0.49550000       343.05600       1.8993126     0.017687867
       2331.0000       291.83392       98664.915       13589.226       2.5315000       2.4997500      0.15825000       343.14600       1.8767561     0.020885180
       2336.0000       291.85823       98674.386       13565.786       1.9005000       2.9655000     -0.98175010       343.13200       1.8904363     0.019226578
       2341.0000       291.84827       98676.305       13535.400      0.92275010       2.1732500      0.46350000       343.84200       1.8768600     0.018647653
       2346.0000       291.85613       98680.594       13538.874       2.9712500       2.6760000     0.032250000       342.78400       1.8747539     0.016151443
       2351.0000       291.85461       98682.154       13535.737       3.4892500       3.5397500    -0.026000000       342.55800       1.8875053     0.016539281
       2356.0000       291.80998       98672.429       13502.733       3.2645000       5.8880000     -0.96750000       342.73600       1.8596402     0.015929193
       2361.0000       291.79139       98668.794       13496.731       2.7882500       4.7905000     -0.42075000       342.37900       1.8555438     0.014877254
       2366.0000       291.84401       98670.305       13542.963       3.7345000       3.6327500     -0.29000000       343.31700       1.8300729     0.016387068
       2371.0000       291.80988       98670.288       13544.568       2.7417500       1.9882500      0.44700000       343.11100       1.8773945     0.014446970
       2376.0000       291.67001       98671.677       13503.088       2.2295000       3.0415000      0.19400000       343.07000       1.8653267     0.014852602
       2381.0000       291.63227       98670.536       13505.380       2.9050000       4.0727500      0.45775000       342.73300       1.8777719     0.018823193
       2386.0000       291.59839       98669.796       13521.808       1.8782500       4.7895000    0.0010000000       342.97000       1.8661049     0.017063434
       2391.0000       291.58186       98665.651       13521.387       2.6317500       3.2570000      0.32050000       342.88800       1.8582597     0.017451525
       2396.0000       291.69503       98654.566       13558.938       2.9185000       3.5082500     -0.32225000       342.82100       1.8582456     0.018231037
       2402.0000       291.72169       98647.779       13564.313       2.6385000       2.9260000      0.69875000       343.45900       1.8696068     0.013932652
       2407.0000       291.68920       98642.626       13527.530       3.2557500       2.0730000     -0.65425000       343.76400       1.8951291     0.014149848
       2412.0000       291.64094       98638.024       13491.168       1.7102500       1.2162500      0.21225000       343.69900       1.8763972     0.013013689
       2417.0000       291.50413       98636.526       13414.898       1.7620000     -0.19550000      0.35300000       343.90500       1.8512070     0.015754197
       2422.0000       291.47572       98634.552       13406.933       2.6905000       2.0130000     -0.70900010       343.08700       1.8740096     0.013551735
       2427.0000       291.50014       98630.990       13445.415       4.7427500       3.7455000   0.00075000000       343.16000       1.8699911     0.013953809
       2432.0000       291.49388       98629.430       13441.492       3.1505000      0.71175000      0.21725000       343.11500       1.8481523     0.019081417
       2437.0000       291.53917       98630.314       13452.747       4.1572500       3.4830000      0.10300000       343.30500       1.8817092     0.013622962
       2442.0000       291.56506       98630.332       13472.196       1.9195000       2.8422500     0.078500000       343.19500       1.8543340     0.017520882
       2447.0000       291.52984       98630.447       13447.941       3.2762500       4.0800000     -0.46950000       342.68700       1.8785725     0.016318998
       2452.0000       291.54685       98630.483       13458.108       4.8675000       4.1832500      0.45275000       342.88500       1.8568533     0.017993264
       2457.0000       291.61845       98630.486       13515.733       1.8650000       2.5000000      0.79600010       343.55600       1.8646234     0.017199093
       2462.0000       291.66845       98630.564       13566.212       2.2735000       2.4350000      0.33450000       343.08800       1.8767324     0.018642547
       2467.0000       291.70636       98630.313       13605.239       2.5335000       2.6537500  -0.00025000000       342.83400       1.8632815     0.016605322
       2472.0000       291.77033       98630.331       13663.603       2.4795000       3.3665000      0.35000000       342.96900       1.8776579     0.016584075
       2477.0000       291.87245       98629.017       13774.171       2.5077500       1.3142500     -0.47850000       343.04600       1.8785865     0.019147766
       2482.0000       291.92923       98630.391       13830.291       3.5285000       2.2842500      -1.1275000       342.37000       1.9211186     0.016426130
       2487.0000       292.01653       98631.421       13873.022       2.3042500       2.3180000     -0.89075010       343.19500       1.9096383     0.015061436
       2493.0000       292.01667       98637.304       13892.583       4.1000000      0.95425000      0.38000000       343.22000       1.8987376     0.014999480
       2498.0000       291.95252       98648.469       13881.613       4.5070000       1.6362500     -0.28225000       342.82200       1.8783306     0.016910757
       2503.0000       291.86280       98653.869       13836.675       5.2507500       1.8430000    -0.074750010       343.01200       1.8750342     0.015092288
       2508.0000       291.67586       98660.188       13744.135       4.5775000       3.8312500     -0.57725000       342.75400       1.8589805     0.015367991
       2513.0000       291.58800       98663.032       13687.183       2.2832500       1.4495000      0.47625000       343.62000       1.8630222     0.018575276
       2518.0000       291.50199       98660.349       13608.373       3.7925000       2.6897500      0.92750010       343.25900       1.8562176     0.019438364
       2523.0000       291.46068       98660.365       13552.227       3.6200000       2.6917500     -0.42200000       342.93500       1.8706864     0.016135036
       2528.0000       291.47751       98660.087       13513.768       2.7460000       1.4685000      -1.2455000       342.67200       1.8699135     0.016194543
       2533.0000       291.50982       98660.027       13499.550       3.3307500       1.0847500      0.61250000       343.72100       1.8610442     0.018711750
       2538.0000       291.57251       98659.171       13493.381       4.1837500       2.7467500     -0.41250000       342.96000       1.8533751     0.016523658
       2543.0000       291.62812       98660.743       13497.477       4.2145000       1.3117500     0.035750000       343.21100       1.8643219     0.014955641
       2548.0000       291.75109       98664.406       13541.085       4.7795000      0.58200000     -0.90750000       342.89700       1.9059877     0.014214215
       2553.0000       291.78203       98666.405       13567.360       4.1620000       2.9580000     -0.34600000       342.77300       1.8707097     0.017208559
       2558.0000       291.76807       98670.244       13584.581       3.0052500       1.2150000     -0.16275000       343.44300       1.8618425     0.016128709
       2563.0000       291.74583       98671.706       13609.085       3.1372500       1.4730000      0.99750010       343.48600       1.9158573     0.016019524
       2568.0000       291.65806       98671.463       13639.973       4.6397500       2.2060000     -0.39400000       343.54900       1.8773866     0.016523544
       2573.0000       291.62411       98669.852       13673.354       4.1272500       2.2970000     -0.20225000       342.97900       1.8779804     0.016888508
       2578.0000       291.62330       98664.941       13726.584       2.5877500       2.1227500     -0.18300000       343.07800       1.8653946     0.018555694
       2584.0000       291.56679       98664.620       13731.943       3.7057500       1.7565000     -0.65500000       343.20500       1.8811705     0.015603132
       2589.0000       291.50955       98664.446       13723.722       2.0470000       1.9177500      0.89725010       343.35800       1.8970717     0.014487374
       2594.0000       291.46925       98665.343       13703.096       1.8092500       2.0222500     0.058250000       343.09500       1.8540721     0.017012818
       2599.0000       291.39505       98670.650       13637.760       1.9085000       2.1800000      0.17000000       343.16200       1.9320887     0.016406761
       2604.0000       291.37268       98671.855       13608.605       3.1810000       2.9477500     -0.65425000       342.62200       1.8956697     0.016860996
       2609.0000       291.40862       98670.109       13608.251       1.7980000       2.0145000      0.11700000       343.30200       1.8688479     0.016213517
       2614.0000       291.38979       98670.050       13557.910       2.0142500       2.9917500     -0.69075010       342.88200       1.8814304     0.016010753
       2619.0000       291.34503       98670.442       13468.391       2.2795000      0.70025000      0.27575000       343.62400       1.8759631     0.016676358
       2624.0000       291.34392       98670.501       13445.095       2.1900000       1.5732500      0.14750000       343.57300       1.8810720     0.015010697
       2629.0000       291.35213       98671.214       13423.995       2.5030000       1.7407500     -0.31525000       343.34300       1.9009247     0.016766977
       2634.0000       291.34236       98669.367       13411.959       3.3050000       1.6887500    0.0052500000       342.88400       1.8615405     0.017871077
       2639.0000       291.37738       98665.816       13453.132       2.4550000       2.4070000     -0.40000000       343.05500       1.8590873     0.018116173
       2644.0000       291.33056       98663.794       13461.356       1.9715000      0.84325000    0.0022500000       343.55400       1.8684683     0.017895805
       2649.0000       291.21458       98660.028       13442.605       2.7475000       2.4180000     -0.30950000       342.72800       1.9123602     0.016380228
       2654.0000       291.14439       98658.938       13436.380       2.3547500       2.1985000     -0.19675000       343.08400       1.8869116     0.016631935
       2659.0000       291.03802       98661.998       13443.079       3.7197500       1.1930000     -0.22425000       343.06900       1.8483285     0.020434886
       2664.0000       291.01394       98658.271       13443.933       2.8362500       2.2820000      0.18575000       343.40200       1.8544679     0.019670160
       2669.0000       291.02498       98651.124       13413.360       2.9765000       2.5362500     -0.65375000       342.92800       1.8804332     0.016304989
       2675.0000       291.08435       98646.360       13459.849       3.1710000       2.4305000     -0.79600010       343.32600       1.8461617     0.016979617
       2680.0000       291.20560       98639.097       13545.523       3.8772500       3.6295000     -0.33875000       342.90200       1.8910755     0.016072071
       2685.0000       291.25492       98637.379       13577.914       2.3210000       1.2637500       1.6630000       343.48300       1.8635069     0.017162172
       2690.0000       291.29475       98640.316       13618.136       2.7692500       1.8050000     0.095250000       343.02500       1.8844077     0.017782899
       2695.0000       291.39176       98640.188       13645.793       2.2785000       1.6212500      0.76725010       343.18900       1.8868810     0.017874000
       2700.0000       291.45241       98640.129       13685.297       2.3027500       1.7845000    -0.072500010       342.74200       1.9063019     0.013488000
       2705.0000       291.52630       98640.365       13756.870       3.9047500       1.7032500     -0.46450000       342.65900       1.9243730     0.016376811
       2710.0000       291.60664       98640.401       13843.173       3.0970000       1.8502500      0.37775000       342.78100       1.8697452     0.014794491
       2715.0000       291.66010       98641.799       13965.105       3.6150000       2.5110000     -0.57175000       342.50100       1.8997039     0.015580265
       2720.0000       291.69992       98640.976       14041.791       3.2930000       1.7792500     -0.22100000       342.68600       1.8928074     0.015188910
       2725.0000       291.73973       98638.931       14105.216       2.8802500       2.4310000     -0.54525000       342.92200       1.8894852     0.020450611
       2730.0000       291.80580       98635.103       14188.511       1.5132500       1.2265000     -0.50200000       343.23800       1.8928248     0.018172481
       2735.0000       291.84461       98632.990       14207.422       2.9250000       1.7502500     -0.55925000       343.32900       1.9033055     0.019910716
       2740.0000       291.85599       98629.747       14172.113       3.9875000       1.3045000      0.66050000       342.95500       1.9030101     0.016725000
       2745.0000       291.85459       98630.274       14090.282       1.3580000       1.6337500      0.17800000       343.81900       1.8762522     0.022028341
       2750.0000       291.85593       98630.274       14044.419       2.8415000       1.1437500      0.12425000       342.95200       1.9114481     0.019381864
       2755.0000       291.81502       98630.274       13986.800       1.6142500       2.1772500     -0.10050000       343.16600       1.8938983     0.017900387
       2760.0000       291.79396       98630.274       13938.696       1.5487500       2.1642500      0.14150000       343.23900       1.9102284     0.018363471
       2766.0000       291.78546       98633.282       13924.356       3.0347500       1.9532500      0.34275000       343.40400       1.8875891     0.019463475
       2771.0000       291.79675       98631.019       13910.993      0.66500000      0.84775010    -0.027250000       343.46900       1.9011044     0.018578186
       2776.0000       291.82003       98623.506       13877.621       1.7437500       2.0362500     -0.20450000       343.20700       1.8914969     0.019732598
       2781.0000       291.85158       98619.530       13872.679      0.77875010       2.0410000      0.12725000       343.78700       1.8619285     0.020749150
       2786.0000       291.96733       98612.182       13921.277       3.1367500       2.0755000      0.28675000       344.23300       1.8701514     0.022826129
       2791.0000       291.97297       98608.416       13920.212       1.8862500       1.3237500      0.41850000       343.52200       1.8579212     0.021534651
       2796.0000       291.87355       98610.441       13876.826       1.3315000       2.4132500     -0.44125000       343.37800       1.8856752     0.024017021
       2801.0000       291.84380       98610.539       13878.329       2.5730000       3.0112500    -0.091750000       343.10100       1.8657336     0.024796594
       2806.0000       291.76350       98610.339       13865.177       2.1102500       1.9515000      0.50575000       343.98300       1.8770384     0.018438972
       2811.0000       291.72733       98610.360       13874.646       1.3502500       3.8187500     -0.23025000       343.45400       1.8813102     0.022233149
       2816.0000       291.80514       98610.467       13978.732       3.2530000       3.7587500    -0.031750000       343.04200       1.8947442     0.019485183
       2821.0000       291.81257       98610.543       14002.092       3.3810000       1.9712500     -0.26225000       343.61800       1.8658496     0.024185029
       2826.0000       291.78033       98610.305       13977.371       4.4642500       3.7085000     -0.36650000       343.86500       1.8769027     0.021947712
       2831.0000       291.74895       98610.321       13953.291       1.5150000       4.8735000     -0.28875000       342.87200       1.9095899     0.021131173
       2836.0000       291.67509       98610.209       13872.357       1.8467500       4.3525000     -0.41575000       342.91000       1.8674023     0.024523517
       2841.0000       291.63583       98610.188       13824.462       1.4100000       3.7862500      0.33550000       342.40200       1.8946105     0.021867509
       2846.0000       291.60937       98610.440       13804.615       2.3347500       2.8355000      0.23900000       342.72400       1.8982579     0.022551882
       2852.0000       291.58839       98610.559       13759.200       2.5087500       2.0800000     -0.15850000       343.36300       1.8836463     0.017164418
       2857.0000       291.57340       98610.344       13698.167       1.3192500       2.3302500     -0.22275000       343.09100       1.9129532     0.019323487
       2862.0000       291.60148       98610.363       13684.059       3.5682500       3.0312500      0.12575000       343.31500       1.8999378     0.020350613
       2867.0000       291.65103       98610.424       13662.935       2.3055000       3.7515000      0.71850000       343.13400       1.9074287     0.019861971
       2872.0000       291.71927       98610.524       13693.752       1.5167500       3.0117500    -0.060500000       343.56600       1.8826464     0.022146874
       2877.0000       291.81695       98610.336       13791.946       2.1847500       2.1460000     -0.61350010       343.17400       1.8483565     0.024095629
       2882.0000       291.94468       98610.336       13879.014       2.9415000       3.8762500     -0.70750000       342.33800       1.8888379     0.020840699
       2887.0000       292.10528       98610.459       13959.375       1.7960000       2.6465000     -0.22225000       342.93300       1.9218427     0.019429120
       2892.0000       292.25814       98610.560       14099.827       2.4615000       3.2295000      0.40600000       343.49200       1.8831724     0.019234005
       2897.0000       292.49365       98610.345       14310.656      0.76025000       2.8862500     -0.65400000       343.11600       1.9115850     0.017154477
       2902.0000       292.61796       98610.363       14468.171       1.7600000       4.8035000      0.41525000       342.97100       1.9285019     0.020007989
       2907.0000       292.73939       98610.480       14747.768       1.9367500       6.7167500      0.11075000       343.29500       1.9417519     0.019439870
       2912.0000       292.73273       98610.561       14811.107       1.5037500       5.2005000     -0.27175000       342.58100       1.9319903     0.023090767
       2917.0000       292.58687       98606.469       14732.085     -0.18975000       4.5592500      0.16250000       342.71000       1.9436246     0.018032344
       2922.0000       292.46520       98610.610       14625.357       1.6310000       3.5832500     -0.20000000       343.05700       1.9185225     0.022688619
       2927.0000       292.21652       98623.146       14329.576       2.6002500       3.0302500      0.37800000       343.46400       1.9218796     0.019392058
       2932.0000       292.07661       98627.852       14155.722       3.3230000       2.8112500    -0.018500000       343.62100       1.9197764     0.018903820
       2937.0000       291.97602       98637.758       14001.623       2.1445000       2.4290000     -0.34425000       343.38600       1.9230694     0.020253025
       2943.0000       291.89830       98637.243       13845.651       1.7840000       2.4400000      0.70500000       343.84300       1.8632872     0.021662147
       2948.0000       291.85432       98622.157       13726.775       2.2690000       3.2620000     -0.88125000       343.67200       1.9254994     0.019320194
       2953.0000       291.90690       98616.801       13694.885       3.8672500       3.4402500      -1.6120000       342.74900       1.9284281     0.016372392
       2958.0000       292.06867       98610.316       13731.137       3.7067500       2.6595000      0.37025000       343.26700       1.8706247     0.024401326
       2963.0000       292.14917       98607.455       13734.322       3.5117500       4.1877500     -0.79000000       342.92500       1.9174951     0.019908566
       2968.0000       292.28770       98610.199       13800.954       2.7100000       1.4947500      0.10175000       344.11200       1.8798081     0.022079772
       2973.0000       292.35958       98610.183       13834.286       4.3970000       3.2037500     -0.50625000       343.14900       1.9074564     0.021372016
       2978.0000       292.35297       98610.457       13830.407       3.4237500       3.7562500    -0.091250000       343.13600       1.8951279     0.025044331
       2983.0000       292.35632       98610.488       13828.496       3.6272500       3.1180000      0.29175000       343.07200       1.9004614     0.019248372
       2988.0000       292.36910       98608.137       13852.443       3.3617500       1.7237500      0.93925010       343.97700       1.9073893     0.019912736
       2993.0000       292.34725       98611.396       13843.490       2.7862500       2.7680000      0.15250000       343.08600       1.9308645     0.018773264
       2998.0000       292.28346       98620.903       13786.704       2.0085000       2.9182500     -0.38400000       343.48100       1.8963299     0.022977002
       3003.0000       292.21694       98621.669       13756.840       1.7572500       1.7432500      0.69475000       344.72600       1.8680178     0.023558052
       3008.0000       292.13972       98621.508       13731.951       1.7817500       2.6985000    -0.039250000       343.53900       1.8750698     0.027400196
       3013.0000       292.05305       98620.213       13712.178       1.3232500       1.5125000      0.20125000       344.75600       1.8722715     0.025087413
       3018.0000       291.90434       98610.432       13680.504       4.2350000       2.9052500     -0.32050000       343.35200       1.7955641     0.031202220
       3023.0000       291.85237       98607.668       13683.146       3.0527500       3.3040000     -0.26775000       343.08900       1.9091525     0.017708246
       3028.0000       291.80993       98610.457       13703.400       3.4185000       4.8750000      -1.1490000       343.30600       1.9002660     0.021940135
       3034.0000       291.86629       98610.490       13747.866       3.2395000       4.8120000     -0.52375000       342.61700       1.9030409     0.022772595
       3039.0000       292.02969       98610.464       13823.991       3.5810000       3.5167500     -0.46375000       342.97200       1.9228911     0.022493924
       3044.0000       292.12047       98610.490       13867.272       4.6757500       3.7812500     -0.14075000       342.92000       1.8978659     0.025261145
       3049.0000       292.24549       98610.219       13901.122       3.2332500       4.6435000      -1.3567500       343.31400       1.9016026     0.022465085
       3054.0000       292.31839       98610.173       13957.859       2.7397500       3.0962500     -0.31325000       343.66900       1.8977765     0.020698175
       3059.0000       292.35917       98610.195       14001.202       4.2605000       2.3557500     -0.18050000       342.95700       1.9289667     0.017470020
       3064.0000       292.37175       98610.181       14086.472       4.2892500       3.9015000     -0.16100000       342.32600       1.9000078     0.019192124
       3069.0000       292.38363       98610.465       14256.107       3.4067500       2.4557500    -0.068000000       343.51000       1.9391029     0.020200939
       3074.0000       292.31876       98610.490       14272.385       2.9702500       2.9377500     -0.87325010       343.20900       1.9315848     0.020207857
       3079.0000       292.15058       98611.245       14230.615       3.7620000       3.5437500     -0.12900000       342.73000       1.9573695     0.020578847
       3084.0000       292.09836       98609.398       14211.585       2.0632500       3.3287500     0.026250000       343.34300       1.9052353     0.019016628
       3089.0000       292.04605       98605.664       14118.725       2.2652500       1.3222500      0.21825000       343.35200       1.9067078     0.021829652
