MIRICO/SHELL project - Processed LDS file generated on
Fri Jul 14 14:58:08 2017
Time stamp for record start
05/11/2017  13:13:11.0000
Nb of points in the record
         613
Beam position index
       4.0000000
Beam angle (degrees)
    -0.023000000
Open Path length (m)
       98.010000
****************** Temporal data record ************************
Elapsedtime_sec Temp_K Press_Pa Humidity_ppmv WindX_m/s WindY_m/s WindZ_m/s Speedofsound_m/s CH4vmr_ppmv CH4vmrerror_ppmv  
      0.00000000       293.59050       98663.136       13712.460       2.7662500       1.6465000      0.26750000       344.63900       3.0979133     0.021478367
       5.0000131       293.64411       98655.632       13777.962       4.5745000       3.3590000     -0.59125000       343.65000       2.8672590     0.015175170
       9.9999860       293.53165       98628.684       13811.306       3.3140000       2.9480000     -0.36275000       343.96600       3.0689228     0.017436544
       14.999999       293.49210       98620.624       13819.681       5.8465000       1.7377500     -0.11775000       344.64600       2.7728807     0.016429998
       20.000012       293.44826       98619.074       13777.226       5.1042500       3.9737500     -0.18750000       343.60300       2.9308367     0.016215381
       25.000025       293.38888       98622.748       13741.852       3.3227500       2.3885000      0.61350010       344.57600       2.8597402     0.017097336
       29.999998       293.33407       98648.782       13697.869       4.7720000      0.82375000      0.91675000       344.49400       2.7911351     0.015548154
       35.000011       293.29421       98659.276       13636.326       4.5992500      0.65000000     0.080750000       344.18800       3.0841735     0.022752442
       40.000024       293.16416       98668.069       13514.427       4.2632500      0.74350010      0.40975000       344.48100       3.0714511     0.020163260
       44.999997       293.17147       98668.419       13473.255       4.9772500       1.1172500     0.055000000       344.18100       3.1408196     0.017493877
       50.000010       293.30997       98650.890       13455.831       2.6862500       1.2965000      0.12975000       345.39400       2.7455507     0.017863628
       55.000024       293.41281       98642.948       13455.312       3.6375000      0.58650000     0.086750000       345.03700       2.5088595     0.019161289
       59.999996       293.61558       98629.055       13528.441       3.5277500       1.9580000      0.31850000       345.70100       3.2571687     0.016615317
       65.000010       293.74071       98626.900       13585.904       3.4837500       4.2237500      0.62050000       345.15700       2.6125422     0.018004962
       71.000017       293.86769       98641.494       13665.003       4.4867500       3.2742500     -0.14250000       343.34600       2.7369223     0.016844048
       75.999990       293.87800       98647.528       13707.486       2.3942500       2.6062500      0.82750000       345.10900       2.7878948     0.017782815
       81.000003       293.81841       98661.369       13773.490       3.3322500       2.6017500    -0.079750000       344.59700       3.2711867     0.017839192
       86.000016       293.73272       98663.559       13780.225       5.0295000       2.9337500      -1.0177500       344.37000       2.9699811     0.017737355
       90.999989       293.51053       98656.251       13735.103       3.2967500       3.6422500     -0.38050000       343.98500       2.7104765     0.018038714
       96.000002       293.38737       98648.075       13682.599       2.8215000       2.9055000      0.62350000       344.82200       2.8330649     0.021816794
       101.00002       293.26263       98623.398       13574.378       3.9515000       1.8807500       1.1330000       344.38100       2.5139453     0.018913835
       105.99999       293.20833       98621.148       13511.886       5.6910000       2.8052500     -0.39275000       344.08300       2.5841431     0.017915542
       111.00000       293.26920       98629.684       13470.106       3.5385000       1.3080000     0.054750000       344.85500       2.5084562     0.015974443
       116.00001       293.24579       98636.180       13405.955       4.7395000       2.2535000     -0.51600000       343.44600       2.7584842     0.015446370
       120.99999       293.27485       98661.541       13379.953       3.2717500       2.8097500     -0.30450000       345.16600       3.6713431     0.018340342
       126.00000       293.19560       98671.662       13290.984       2.4757500       2.1197500      0.19700000       345.02000       2.8750662     0.016028275
       131.00001       292.98482       98675.010       13141.501       4.8877500       3.2322500      -1.5995000       343.47800       2.6779488     0.016081739
       135.99999       292.84400       98671.206       13013.857       3.2425000      0.66700010      0.14000000       345.67300       2.6512658     0.017709006
       141.00000       292.57724       98654.828       12802.590       4.7435000       1.7805000     -0.13300000       345.02800       3.3999199     0.015756688
       146.00001       292.53864       98646.797       12728.983       3.9977500       1.4412500      0.39150000       345.13200       2.7109097     0.014662261
       151.00003       292.67482       98628.482       12727.465       4.7707500       1.1330000     -0.23975000       343.45200       2.7892694     0.025370952
       156.00000       292.76932       98626.163       12742.721       4.6822500       1.7397500      0.84475000       344.18600       3.1411320     0.019773051
       162.00001       293.11389       98641.482       12916.031       3.5362500       3.8972500    -0.076250000       343.59700       3.0740323     0.023756193
       167.00002       293.17235       98649.197       12947.929       3.9870000       2.6230000     -0.35925000       343.76200       2.5677580     0.013078294
       171.99999       293.08319       98665.358       12932.373       4.0085000       2.8970000    -0.053250000       344.34000       2.4909675     0.015490739
       177.00001       293.03445       98669.898       12921.076       3.8080000       3.1427500     -0.14625000       343.61900       2.6289552     0.016363625
       182.00002       292.83562       98669.316       12818.271       3.3242500       3.0722500      0.12000000       344.75800       2.4600016     0.016763719
       186.99999       292.80624       98663.873       12832.910       2.8905000      0.47850000      0.21300000       345.48100       2.3782024     0.019497233
       192.00000       292.91894       98647.608       12930.438       2.8657500      0.44375000     0.025750000       345.49400       2.8471084     0.018956111
       197.00002       292.89675       98640.280       12969.071       4.5967500       1.7217500     -0.12575000       342.93400       2.6261669     0.013502039
       201.99999       292.87285       98627.329       13053.712       4.8330000       1.7730000     -0.64850000       343.03200       2.7871619     0.011948044
       207.00000       292.84093       98628.071       13076.098       4.5402500       1.0720000     -0.33250000       343.41500       2.5546632     0.015487629
       212.00002       292.71477       98641.721       13035.662       2.8865000      0.47600000      0.83225010       344.70900       2.9855773     0.015809634
       216.99999       292.65766       98649.528       13008.229       4.7750000       1.5710000      0.20950000       343.68500       3.0142901     0.019745106
       222.00000       292.63620       98667.598       12956.319       1.5892500       1.0925000      0.56800000       344.58000       2.4798517     0.017928356
       227.00002       292.64889       98668.939       12939.238       2.8310000     0.053250000   -0.0010000000       344.89400       2.8605269     0.011062780
       231.99999       292.62959       98658.476       12880.338       3.9532500      0.55725000      0.20150000       345.27600       3.1670123     0.018157113
       237.00000       292.73605       98652.249       12933.080       4.6727500     -0.77150010     -0.28900000       344.27300       2.4538769     0.016232191
       242.00002       292.99744       98635.112       13082.882       4.6542500     -0.89075010     0.084750000       344.36100       2.4093131     0.015375356
       246.99999       293.13995       98630.647       13186.586       4.9072500      0.80875000     -0.47750000       344.11000       2.5247789     0.015522917
       253.00000       293.41692       98631.707       13403.691       5.7407500     -0.33500000      0.50700000       344.06100       2.7936048     0.017309001
       258.00001       293.37808       98638.289       13459.641       2.8295000      0.30175000      0.37625000       345.05500       2.7369827     0.015477970
       263.00002       293.15186       98654.140       13442.042       4.6552500       1.3615000    -0.064500000       342.97900       2.9595202     0.013153434
       267.99999       292.98584       98661.225       13414.783       2.7792500    -0.019250000      0.25100000       344.19500       2.9141147     0.014605877
       273.00001       292.63927       98673.982       13308.333       1.9530000       1.7197500      0.60500000       345.35300       2.9848350     0.017998759
       278.00002       292.51145       98671.770       13265.826       2.0825000       1.9345000      0.37775000       345.68300       2.5086471     0.013646592
       282.99999       292.47235       98657.307       13231.302       4.9212500       2.9295000     -0.20775000       345.38900       2.8646678     0.022061832
       288.00001       292.47626       98649.455       13200.356       2.0890000       3.0920000      0.11625000       345.34100       2.5782306     0.014495330
       293.00002       292.57398       98631.983       13191.304       3.4487500       5.1497500     -0.32025000       342.49200       2.2947569     0.014795726
       297.99999       292.65082       98632.128       13170.956       3.5825000       4.6725000    0.0047500000       343.82900       2.7689510     0.019911622
       303.00001       292.76755       98642.472       13136.260       5.0582500       2.0560000     -0.18100000       343.91000       2.6329108     0.014419946
       308.00002       292.88706       98649.290       13123.769       1.7822500       1.6880000      0.41800000       345.39300       2.6689205     0.014018093
       312.99999       293.02501       98665.639       13111.931       1.7142500       3.0665000     0.071500000       345.86900       2.3740699     0.014800567
       318.00001       293.14555       98671.100       13135.209       2.9592500       2.6785000     -0.49350000       344.51300       2.9748547     0.017088942
       323.00002       293.30391       98673.418       13199.526       2.5305000       2.7050000    -0.098750000       344.88100       3.2082793     0.022029741
       327.99999       293.37847       98669.027       13215.057       4.1227500       2.4402500     -0.16500000       343.84100       2.7556402     0.020861978
       333.00000       293.40556       98657.364       13217.181       2.8547500       2.6735000     -0.26850000       344.42600       2.5652232     0.014739670
       338.00002       293.42772       98649.522       13265.072       5.2685000      0.73900000     0.036750000       344.19300       2.5816760     0.012310691
       344.00003       293.41939       98631.434       13316.056       3.0397500       1.0490000    -0.037750000       345.28500       3.1491103     0.019611877
       349.00000       293.35448       98633.293       13358.615       6.1945000       2.5715000     -0.27800000       342.99400       2.8152136     0.015764682
       354.00001       293.25573       98644.241       13463.705       3.9530000       4.2747500     -0.47850000       344.50900       2.8524673     0.026617568
       359.00002       293.17282       98660.253       13434.068       5.4900000       1.1407500     -0.29800000       343.82900       2.6758104     0.015873978
       364.00000       293.05354       98667.811       13381.242       3.0230000       1.4512500      0.70725010       344.63800       3.0991788     0.012878785
       369.00001       292.92289       98668.832       13265.368       3.7905000       1.0457500      0.55650000       344.86400       2.8538381     0.023082127
       374.00002       292.80471       98667.170       13171.562       3.0012500       3.0377500      0.46900000       343.64500       2.7559728     0.016900131
       379.00000       292.67473       98657.208       13068.466       4.6675000       1.5307500     -0.14250000       343.83900       2.6008530     0.018234158
       384.00001       292.50723       98650.215       12961.127       3.2012500       3.3155000     -0.34500000       344.82100       2.4738016     0.018602975
       389.00002       292.32744       98643.223       12855.842       4.6092500       4.2150000      0.24725000       343.65300       2.5633714     0.017342680
       394.00000       292.13584       98633.676       12753.386       4.2952500       2.5680000      0.24950000       344.79300       2.8807949     0.015204356
       399.00001       292.03875       98632.117       12688.185       3.1535000       1.9495000      0.30700000       345.25100       2.4239344     0.018743876
       404.00002       291.89054       98632.861       12607.557       4.8475000       1.4397500    -0.019000000       344.30300       2.2335761     0.020571515
       408.99999       292.12279       98647.841       12679.466       3.2610000       1.6105000      0.38875000       345.36200       2.9353579     0.016364133
       414.00001       292.25422       98656.058       12720.404       4.9235000       2.4957500      -1.1055000       342.80400       2.8760762     0.020034306
       419.00002       292.47126       98670.389       12791.329       3.8972500       1.8657500      0.28275000       343.60400       2.5891857     0.016514503
       423.99999       292.58751       98674.081       12852.208       1.5575000       1.7610000      0.46350000       344.74200       2.5694778     0.020386119
       429.00001       292.62991       98670.385       12903.508       4.1480000       3.7070000      -1.6017500       343.93600       2.2942244     0.021156627
       435.00001       292.55228       98654.823       12935.680       5.2752500       2.4200000      0.27050000       344.64200       2.4244200     0.016356904
       439.99999       292.57207       98635.683       13013.196       5.3930000      0.56025000     -0.88875000       344.92400       2.2201187     0.017866632
       445.00000       292.55043       98631.494       13064.856       3.1372500       3.2895000    -0.086500000       343.80700       2.1665021     0.023119001
       450.00001       292.54944       98640.256       13135.664       4.1350000       2.8497500      0.72175000       344.55700       2.7657291     0.021312734
       454.99999       292.50573       98645.499       13155.358       6.1237500       2.2580000     -0.52775000       342.73400       2.7600155     0.019437736
       460.00000       292.32171       98660.824       13098.253       3.5445000       1.0367500     -0.38900000       343.25300       3.2548278     0.019365757
       465.00001       292.26763       98668.331       13092.201       4.3920000       2.9087500     -0.48100000       344.12400       2.8706180     0.021217706
       470.00003       292.30174       98673.594       13095.324       3.1862500       2.5222500      0.79125010       344.87900       3.1259081     0.017778089
       475.00000       292.29287       98672.115       13080.524       5.2540000       3.2620000     -0.65900000       343.11500       2.9604245     0.018080304
       480.00001       292.36256       98661.980       13111.973       2.3895000       1.0410000      0.33450000       345.21000       2.5669526     0.019959380
       485.00002       292.36879       98654.886       13092.582       2.7412500       1.2672500     -0.19175000       345.28100       2.7136592     0.014245219
       490.00000       292.29069       98638.616       13005.526       3.2030000      0.62450000    -0.074500000       345.30300       2.6924178     0.018866788
       495.00001       292.24049       98632.083       12944.431       4.6340000       3.1782500      0.94825010       345.74100       2.6982841     0.017999093
       500.00002       292.16100       98630.475       12838.567       5.1112500       2.2050000     -0.10200000       344.84500       2.7531653     0.018747658
       505.00000       292.13266       98633.883       12805.045       4.8905000       2.1882500    0.0087500000       343.32000       2.6857607     0.023913439
       510.00001       292.11567       98649.459       12812.972       4.1312500       2.1447500     -0.86525010       343.22400       3.0888242     0.016895149
       515.00002       292.13952       98657.194       12840.648       3.3210000       1.1085000     -0.46200000       344.88400       3.0658025     0.016653005
       520.00000       292.27187       98667.305       12960.877       4.6815000       1.0815000      0.91500000       345.19300       2.9928818     0.017199856
       526.00000       292.32566       98673.489       13032.651       3.7735000       1.7917500     -0.52475010       344.41000       2.7674832     0.017873596
       531.00002       292.35133       98671.655       13057.439       2.3520000      0.62275000     -0.23000000       344.96600       2.3446865     0.015049001
       535.99999       292.36404       98670.332       13112.509       1.5427500       1.3300000      0.29875000       345.57900       3.2324338     0.019426452
       541.00000       292.30476       98670.171       13164.319       3.9757500      0.87250010      0.38450000       344.31400       3.2379095     0.017726869
       546.00002       292.28836       98664.028       13206.947       2.5490000       2.0502500     0.047750000       345.15900       3.1343940     0.018171919
       550.99999       292.32555       98645.433       13308.589       2.8382500       1.9995000      -1.3675000       343.37800       3.0017301     0.016747765
       556.00000       292.29788       98642.011       13316.798       3.5427500       3.7725000     -0.66875000       342.92500       2.7426735     0.013609820
       561.00001       292.21094       98641.743       13229.008       5.2597500       2.5370000      0.29925000       343.62300       2.6836548     0.016814135
       565.99999       292.18474       98644.149       13199.739       1.8185000      0.84250000      0.52900000       344.60600       2.4398436     0.016139301
       571.00000       292.16039       98663.871       13164.382       2.9407500       1.7130000     -0.34400000       343.75500       2.9698357     0.011398853
       576.00001       292.13411       98669.359       13113.091       3.8047500       2.8762500     -0.55350000       343.12800       2.7340774     0.014909294
       580.99999       292.14379       98668.654       13072.641       3.4215000       1.3020000     -0.48600000       343.32700       3.0518444     0.027485752
       586.00000       292.15402       98665.601       13041.590       2.7542500       2.4807500     -0.25375000       344.06500       2.7097189     0.021106257
       591.00001       292.15687       98654.523       12988.005       3.0052500       1.6382500     -0.58050000       343.43600       2.6756767     0.020037712
       595.99999       292.14710       98647.554       12942.052       2.9990000       1.1735000     -0.14775000       343.47300       3.2611450     0.017419618
       601.00000       292.15688       98636.188       12913.900       2.0507500       1.7495000     -0.68075000       343.79500       2.9847648     0.029996390
       606.00001       292.15311       98632.394       12900.567       2.5175000       1.9492500     -0.76175000       344.00300       2.7714685     0.021284411
       612.00002       292.11242       98630.892       12876.191       4.6052500       1.7282500     -0.70475010       343.82200       2.5537642     0.018931305
       616.99999       292.08245       98636.444       12869.908       3.4815000       2.6300000      -1.0177500       343.00700       3.5266567     0.031736304
       622.00001       292.04716       98652.730       12888.428       3.5295000       1.4097500    -0.097750010       343.83300       3.2643257     0.021837306
       627.00002       292.04365       98660.152       12918.859       5.0327500       2.3175000     -0.49625000       343.50100       2.9082409     0.016923036
       631.99999       292.04315       98673.439       12956.402       4.3912500       1.6152500    -0.052750000       343.06300       2.9391503     0.026224161
       637.00000       292.04940       98672.728       12988.401       4.6525000       2.2762500     -0.40000000       342.97400       3.0039576     0.018040714
       642.00002       292.09952       98658.777       13043.117       3.3215000       3.3155000     -0.13250000       343.04900       3.4890177     0.031515310
       646.99999       292.11299       98651.216       13087.543       3.5717500       1.5300000      0.87275000       343.78900       2.8231009     0.018840878
       652.00000       292.11165       98635.212       13132.701       3.0285000       1.1470000     -0.14875000       343.94000       2.6278793     0.029343334
       657.00002       292.09581       98630.723       13142.242       2.2655000       2.0257500      0.41850000       343.93300       2.4541003     0.031382515
       661.99999       292.05928       98632.045       13143.103       2.3515000      0.59925000      0.36550000       343.94500       2.5291999     0.023419834
       667.00000       292.03927       98635.976       13136.886       1.9197500       4.0312500     -0.41750000       343.58100       3.2586027     0.019722447
       672.00002       292.01270       98647.496       13092.678       3.9970000       4.7052500     -0.25275000       343.19900       3.1887090     0.030783296
       676.99999       291.98266       98654.548       13060.015       2.7915000       3.1247500     -0.53575000       343.59500       2.3652330     0.030852446
       682.00000       291.95737       98665.544       13037.137       4.2727500       2.3562500     -0.21100000       343.20900       2.7615310     0.020940656
       687.00002       291.93731       98668.739       13008.394       3.0710000       3.0162500     -0.67250000       343.49900       2.7634226     0.027465057
       691.99999       291.90095       98668.222       12956.089      0.83050010       2.7505000      0.36125000       343.92500       2.9499054     0.018714861
       697.00000       291.88744       98664.341       12929.915       3.8775000       3.4062500     -0.40650000       343.28700       3.1541548     0.020411218
       703.00001       291.89078       98652.027       12901.184       2.7732500       3.6497500     -0.75950000       343.42300       3.2217476     0.020069744
       708.00002       291.90986       98645.039       12925.342       2.1250000       2.2285000      0.40325000       343.87400       2.8704925     0.028113309
       713.00000       291.94644       98632.512       12979.983       4.3702500       3.2550000    -0.080000010       342.96600       3.4011697     0.030910674
       718.00001       291.96664       98633.956       13029.108       2.6445000       4.2430000     0.088750000       343.17700       3.1028395     0.020440399
       723.00002       292.00371       98643.003       13118.539      0.79725000       2.2287500       1.0127500       343.52500       3.1350029     0.019830504
       727.99999       292.01520       98649.674       13176.774       3.0347500       4.2760000     -0.72650000       343.04600       2.8099713     0.027776307
       733.00001       292.00033       98666.027       13210.869       2.4620000       4.1330000     -0.49500000       343.00500       2.2924489     0.018313568
       738.00002       292.00044       98671.424       13268.136       2.3565000       2.3485000      0.16700000       343.70600       2.6026923     0.027226430
       742.99999       291.99089       98671.449       13344.078       2.0697500       2.5412500   -0.0025000000       343.61300       2.9663996     0.019055687
       748.00001       292.00931       98670.705       13386.968       2.6082500       3.2960000     -0.54200010       343.71700       2.4996814     0.021365099
       753.00002       292.05492       98668.679       13438.487       1.6727500       2.2522500     -0.64600000       343.46400       2.5425772     0.026291047
       757.99999       292.05631       98661.003       13437.861       2.3610000       2.2657500      0.89750000       344.04100       2.5996474     0.028362677
       763.00001       292.06573       98646.225       13400.876      0.55950000       1.2652500       1.0145000       344.06900       2.3578890     0.026842879
       768.00002       292.03849       98639.058       13353.590       1.6642500       3.6102500      0.67875000       343.65400       3.0603660     0.022657767
       772.99999       291.95918       98626.500       13266.656       2.7402500       1.9472500     -0.11850000       343.84000       2.7879418     0.024283397
       778.00000       291.90929       98628.638       13204.222       1.7025000       3.9332500     0.085000000       343.22500       2.7375807     0.025616161
       783.00002       291.85055       98643.364       13127.897       5.6477500       2.2892500      -1.3815000       343.59900       2.6374201     0.031457620
       787.99999       291.81924       98651.253       13080.529       1.4682500       5.1365000      0.22400000       343.39200       2.8705986     0.030034508
       794.00000       291.79429       98667.115       13043.414       4.3200000       3.1610000     -0.77750000       342.92300       2.6891179     0.028310137
       799.00001       291.78583       98671.717       13015.205       4.3517500       3.6840000      0.22900000       343.68000       2.7929929     0.020913877
       804.00002       291.80003       98672.831       12995.458       3.9352500       4.3407500      0.54900000       343.34400       2.6765089     0.021114230
       809.00000       291.81499       98662.508       12989.275       2.9325000       2.7050000      0.17400000       343.40300       2.5553733     0.026595107
       814.00001       291.80647       98655.567       12996.151       4.4375000       4.6747500     -0.68175010       342.69100       2.7381511     0.030375465
       819.00002       291.76984       98641.608       13039.943       2.3037500       4.0175000      0.27075000       343.08700       2.6002927     0.029161364
       824.00000       291.75005       98633.327       13066.968       2.3812500       4.6855000     -0.10525000       343.32100       2.6514568     0.023726506
       829.00001       291.69991       98627.462       13078.999       3.4962500       2.9717500     -0.39550000       343.01600       3.2246409     0.030636277
       834.00002       291.68733       98628.015       13109.593       2.7620000       1.8380000      0.36875000       343.69900       3.4113863     0.029613524
       839.00000       291.69934       98633.498       13146.305       4.4380000       2.4115000     -0.67350010       343.48800       3.2620861     0.025696984
       844.00001       291.74980       98644.677       13184.179       3.5730000       4.5062500     -0.12175000       343.09300       2.6377399     0.030601712
       849.00002       291.77035       98653.040       13220.824       1.3327500       4.0382500    -0.025500000       343.76500       2.8010716     0.028754960
       853.99999       291.80567       98667.073       13275.951       2.5752500       3.7122500    -0.057750000       343.41900       3.0799450     0.024454908
       859.00001       291.77018       98673.183       13276.393       4.5500000       3.8032500      -1.3507500       343.31400       3.0595532     0.032034946
       864.00002       291.78720       98672.777       13299.250       5.3932500       3.6105000     -0.71850000       343.24300       2.7889054     0.029924809
       868.99999       291.86043       98662.837       13346.107       2.9620000       2.3717500      0.21125000       343.51600       2.8197356     0.029604971
       874.00001       291.90027       98656.043       13370.153       2.7495000       4.5010000     -0.37125000       343.25700       2.9019859     0.033433399
       879.00002       291.94016       98648.013       13388.883       6.0777500       3.5647500       1.6485000       343.07300       2.8845898     0.033334194
       884.99999       292.01875       98632.089       13420.579       3.4967500       3.7385000     -0.47200000       343.20700       2.4212055     0.030470517
       890.00000       291.99962       98631.869       13391.608       1.0415000       3.6842500       1.1245000       343.60900       3.1859906     0.031915897
       895.00001       291.99948       98634.299       13372.609       4.0765000       5.1505000     -0.11475000       343.23500       3.0065966     0.022661399
       899.99999       291.98570       98646.217       13327.906       4.4190000       5.3915000     -0.91825000       343.27900       2.6384480     0.020017048
       905.00000       291.99676       98652.165       13318.693       5.0490000       5.0372500     -0.53175000       343.04700       2.6190882     0.022351923
       910.00001       292.03423       98657.080       13340.969       3.8730000       3.1320000      0.12325000       343.15100       2.4973644     0.029663406
       914.99999       292.05398       98661.940       13346.029       2.1675000       3.2985000      0.30150000       343.62300       2.8033457     0.026591348
       920.00000       292.07579       98668.007       13365.875       2.8542500       3.9545000     -0.32025000       343.59900       3.0170297     0.031059730
       925.00001       292.10542       98666.684       13381.563       3.9437500       1.1820000      0.54325000       343.99100       3.2961029     0.030427722
       930.00003       292.14776       98660.868       13400.042       3.1487500       3.1007500      0.57225000       343.24000       2.8749227     0.031342444
       935.00000       292.15644       98655.650       13389.502       2.5802500       3.1385000      0.37225000       343.30500       2.7319476     0.022040915
       940.00001       292.15619       98640.117       13359.696       1.4245000       2.5502500     -0.10550000       343.54800       2.7265127     0.024492354
       945.00002       292.15525       98632.502       13342.105       3.4022500       4.4352500      0.56250000       343.32600       2.4329746     0.031978857
       950.00000       292.12359       98626.947       13303.467       1.9207500       4.9337500     -0.35400000       343.12200       2.4689718     0.022763379
       955.00001       292.09336       98628.312       13269.175       1.3875000       2.9810000     0.085000000       343.58600       2.8500861     0.027509368
       960.00002       292.08005       98639.262       13257.554      0.35375000      0.68825000      0.30475000       343.82400       3.0391796     0.025629664
       965.00000       292.04897       98646.383       13233.078       1.1940000       4.9785000     0.020750000       343.29800       2.7188741     0.027450959
       970.00001       291.94748       98660.788       13171.117      0.77125000       2.9870000     0.062000000       343.38400       2.7560303     0.030392883
       976.00002       291.93339       98669.437       13146.443       1.3297500       5.9197500   -0.0037500000       343.21200       2.5917682     0.031276537
       980.99999       291.96835       98671.051       13150.054       2.1700000       3.1257500      0.21650000       343.52200       2.7080305     0.026083025
       986.00000       292.00583       98671.306       13152.782       1.3665000       4.2735000      0.80650000       343.40700       3.0009881     0.029587363
       991.00002       292.10364       98670.241       13143.454       2.7355000       4.6110000     -0.17150000       343.25600       2.7643163     0.026096312
       995.99999       292.18389       98664.117       13200.449       2.5505000       4.3867500      -1.2352500       343.06800       2.4410651     0.022689781
       1001.0000       292.28458       98649.283       13326.640       2.6095000       4.4020000     -0.32200000       343.26000       3.0529321     0.023136942
       1006.0000       292.32651       98641.684       13393.590       2.8907500       3.9507500      -1.9322500       342.92600       2.7385988     0.024830720
       1011.0000       292.36523       98627.925       13491.567       2.3697500       2.2557500      0.67600010       343.40500       2.7349726     0.024184031
       1016.0000       292.36443       98627.129       13562.558       1.6460000       4.2492500     -0.90500000       343.06600       2.7384981     0.025540487
       1021.0000       292.28114       98639.970       13584.773       3.7912500       3.8840000      -1.4882500       343.21300       3.0629323     0.034549903
       1026.0000       292.23086       98647.340       13594.764       2.3995000       3.0247500     -0.42000000       343.72000       2.9135209     0.024843132
       1031.0000       292.15450       98662.405       13596.411      0.96375010       1.4625000       1.5555000       343.60600       2.7225718     0.032249946
       1036.0000       292.13164       98669.366       13608.751       2.7700000       1.9792500      0.50725000       343.74100       2.6919575     0.023533000
       1041.0000       292.15660       98669.750       13608.530       2.8610000       2.2405000      0.39600000       343.71000       3.2649030     0.031199548
       1046.0000       292.14671       98671.398       13583.601       3.0537500       2.9972500     -0.68300000       343.65100       3.1628260     0.028559111
       1051.0000       292.16953       98674.184       13580.111       3.3257500       4.3655000      -1.4665000       343.31100       3.0063731     0.024922960
       1056.0000       292.15189       98670.078       13538.010       1.6995000       2.3725000       1.0910000       343.54300       2.5496334     0.027141703
       1061.0000       292.06763       98660.618       13420.694       4.1442500       2.8822500      0.49750000       342.93900       2.8195058     0.029682931
       1067.0000       292.02569       98651.596       13337.171       4.5535000       3.7315000      0.13050000       342.88500       2.6962926     0.028844812
       1072.0000       292.01246       98635.343       13275.720       3.4262500       3.0222500     -0.17775000       343.25400       2.4992827     0.027188303
       1077.0000       291.98242       98630.862       13231.002       3.0050000       1.9495000      0.19675000       343.49100       2.8755705     0.022471856
       1082.0000       291.94666       98632.538       13189.960       3.0595000       3.0402500      0.68275000       343.37100       2.7277445     0.023646474
       1087.0000       291.94286       98636.446       13186.465       2.9490000       3.3262500    -0.094500010       343.10500       2.8729755     0.019200732
       1092.0000       291.95397       98647.366       13226.271       3.2900000       2.4075000      0.29525000       343.32600       3.0639748     0.026605536
       1097.0000       291.94419       98654.240       13235.057       1.8217500       3.6660000     0.039500000       343.29500       2.5012560     0.019827329
       1102.0000       291.96785       98664.290       13254.849       2.2650000       3.3792500     -0.40500000       343.12900       2.7404726     0.027636760
       1107.0000       291.94531       98668.987       13272.666       4.3737500       4.3715000      0.50675000       343.01200       2.6160727     0.021283629
       1112.0000       291.87152       98671.449       13284.151       3.7275000       4.0100000     -0.15625000       343.20600       3.8472740     0.028668883
       1117.0000       291.82126       98671.196       13275.933       3.4505000       4.8022500     -0.81875000       342.82800       3.1023860     0.023084784
       1122.0000       291.77005       98665.088       13278.399       3.1182500       5.1770000      0.51200000       343.14900       2.8391982     0.023713953
       1127.0000       291.71970       98664.752       13253.326       2.8620000       4.5195000      0.37150000       343.20500       3.1232262     0.027507358
       1132.0000       291.65794       98664.659       13173.479       4.0690000       3.0440000      0.10225000       342.91400       2.7231793     0.021219646
       1137.0000       291.62405       98665.311       13141.991       4.6040000       3.2622500     -0.30400000       342.77300       2.6465072     0.019939904
       1142.0000       291.61134       98674.708       13142.990       3.3375000       4.1735000      -1.3997500       342.90300       3.0680354     0.022104173
       1147.0000       291.58137       98669.607       13104.460       2.1397500       2.5367500     -0.15825000       343.23400       2.7915819     0.029599690
       1152.0000       291.55869       98650.160       13061.319       3.0017500       4.1792500     -0.45875000       343.18000       3.1623475     0.020938699
       1158.0000       291.53451       98646.780       13011.042       4.0205000       4.3200000     -0.27100000       343.08900       2.6679004     0.019709186
       1163.0000       291.48923       98642.225       12923.711       3.3330000       4.2837500     0.056000000       343.00800       2.6908939     0.028483931
       1168.0000       291.49719       98645.650       12915.217       3.6507500       2.9025000      0.20975000       343.03800       3.3842620     0.023887275
       1173.0000       291.54727       98666.205       12951.770       3.4542500       3.1145000      0.28225000       343.08600       2.8955989     0.020407738
       1178.0000       291.56738       98671.638       12979.370       2.5002500       3.3510000      0.24700000       343.15200       2.6644206     0.025905848
       1183.0000       291.61152       98671.506       13042.687       2.8985000       3.1400000     -0.28925000       343.08100       3.2342492     0.025368338
       1188.0000       291.60373       98670.735       13076.688       3.7017500       2.2705000       1.2995000       343.12800       2.5836187     0.026282734
       1193.0000       291.54476       98668.556       13092.957       1.9980000       4.7240000     -0.41650000       343.23600       3.2364470     0.039883103
       1198.0000       291.54327       98661.059       13134.517       5.1792500       2.0805000      0.18450000       343.23600       3.1540843     0.022566798
       1203.0000       291.54234       98646.585       13193.259       3.9952500       1.9475000     -0.24575000       343.25500       2.8849552     0.027286132
       1208.0000       291.55144       98639.470       13221.313       1.8922500       4.2840000     0.074000000       343.28700       3.1450398     0.023069089
       1213.0000       291.60243       98626.908       13263.441       2.7565000       4.2847500     -0.45725000       343.01600       2.6156538     0.021792600
       1218.0000       291.61378       98629.161       13256.649       2.3627500       4.1417500      0.32875000       343.16500       2.8315051     0.020181078
       1223.0000       291.59990       98644.380       13202.046       1.8982500       4.0537500     -0.15275000       343.24100       2.8196135     0.023486867
       1228.0000       291.59978       98650.367       13168.611       3.6247500       3.4465000     -0.21475000       342.92000       2.8930958     0.020885554
       1233.0000       291.60850       98660.237       13123.534       4.0010000       3.6302500     -0.89400010       342.85900       2.3763108     0.018887127
       1238.0000       291.58968       98665.412       13080.045       4.0150000       3.1582500     -0.44175000       342.93600       2.5341572     0.019930647
       1244.0000       291.55046       98666.016       13025.974       3.4697500       4.5925000     -0.80100010       342.85200       2.8739614     0.020612581
       1249.0000       291.53009       98665.946       12994.312       3.4457500       1.6017500      0.23550000       343.21100       3.4375010     0.026532619
       1254.0000       291.49430       98665.878       12957.574       4.3447500       4.2775000     -0.74625000       343.12600       4.2551721     0.027116402
       1259.0000       291.51471       98666.051       12959.739       3.5515000       1.9015000      0.59000000       343.52800       2.8895605     0.028277561
       1264.0000       291.50607       98661.258       12962.473       1.5295000       1.9297500      0.29250000       343.61900       2.7739963     0.019516292
       1269.0000       291.46985       98649.771       12979.908       2.0640000       1.7135000       1.1677500       343.41300       3.0445686     0.024848164
       1274.0000       291.45009       98644.723       12992.498       3.2215000       3.2725000     -0.61275010       343.26300       2.7677606     0.021224273
       1279.0000       291.38532       98634.779       12984.845       2.3907500       1.0140000      0.89475010       343.22900       2.7750881     0.022686911
       1284.0000       291.38171       98632.149       13009.549       3.0190000       2.2295000       1.1185000       343.13900       3.1558735     0.024204717
       1289.0000       291.41501       98635.658       13050.639       2.1817500       3.1225000     -0.37925000       343.11900       3.5064360     0.032730229
       1294.0000       291.50450       98650.097       13108.909       3.5347500       2.2840000     -0.11600000       343.32600       3.5748197     0.033308475
       1299.0000       291.52336       98657.157       13144.475       2.8505000       2.7207500     -0.27600000       342.99600       3.4417143     0.026461191
       1304.0000       291.56819       98666.453       13205.759       2.5715000       3.5842500     -0.18000000       343.03200       2.6194951     0.023574720
       1309.0000       291.46960       98668.736       13176.163       1.9780000       3.6402500     -0.10950000       343.04300       2.9075570     0.030964804
       1314.0000       291.43619       98670.890       13171.925       3.2985000       2.8507500     -0.81175010       343.03700       2.6164984     0.025024207
       1319.0000       291.44499       98671.891       13182.378       2.0497500       2.9105000     -0.21450000       343.15200       2.7825428     0.024374464
       1324.0000       291.44372       98671.058       13176.225       1.7892500       3.7667500     -0.78175000       343.12800       3.0570082     0.032215327
       1329.0000       291.45474       98669.004       13167.073       2.8282500       2.6492500     -0.13750000       343.18300       3.0595251     0.028877650
       1335.0000       291.50276       98666.010       13161.462       1.6115000       1.8970000     -0.34050000       343.43600       3.2989076     0.041049269
       1340.0000       291.56826       98651.063       13168.312       1.3380000       2.8205000      0.32475000       343.53400       3.2620222     0.023500447
       1345.0000       291.60845       98643.148       13170.298       3.0527500       1.2292500      0.47900000       343.54300       3.2328382     0.031481532
       1350.0000       291.68129       98628.815       13192.207       2.3370000       2.1410000    -0.046500000       343.17600       2.9846303     0.025425812
       1355.0000       291.71921       98626.454       13207.919       2.5347500       3.6982500      0.23475000       343.31400       3.0060725     0.029454958
       1360.0000       291.70013       98639.283       13200.929       1.5767500       2.7310000     -0.70625000       343.22300       2.7705038     0.022585438
       1365.0000       291.70013       98646.432       13209.698       2.1765000       3.1617500    -0.025000000       343.32300       3.0352890     0.029176826
       1370.0000       291.70015       98660.674       13242.197       2.7045000       3.0290000     -0.21550000       343.57700       3.1989884     0.025111764
       1375.0000       291.70026       98668.240       13258.384       1.9715000       3.1527500     -0.92050000       343.31200       3.2246829     0.027032273
       1380.0000       291.68521       98669.286       13261.105       1.6405000       3.1185000     -0.29375000       343.10000       2.9756854     0.033947340
       1385.0000       291.69655       98671.147       13276.193       1.9770000       2.8072500      0.39000000       343.21400       3.1211022     0.033248513
       1390.0000       291.73411       98671.775       13298.653       3.5762500       3.0237500      0.85275010       342.97000       2.9458643     0.028301105
       1395.0000       291.75425       98670.709       13308.810       3.3547500       2.8597500     -0.54200010       343.25900       2.9912734     0.029258953
       1400.0000       291.79033       98669.634       13319.815       3.5935000       4.3510000     -0.22225000       343.11800       3.3045281     0.032520994
       1405.0000       291.80941       98665.409       13330.217       3.0647500       2.3375000      0.66125010       343.10500       2.9167949     0.027240149
       1410.0000       291.82847       98655.917       13350.084       3.9757500       3.2257500     -0.43425000       342.91000       3.0160191     0.025174810
       1415.0000       291.80604       98648.983       13332.343       2.5625000       3.0787500     -0.63100000       343.02000       3.0035483     0.021795015
       1420.0000       291.74872       98637.595       13292.363       1.8710000       2.9830000    -0.016250000       343.33200       3.3504812     0.024173832
       1426.0000       291.68555       98632.644       13247.868       4.5220000       3.3797500     -0.26325000       342.61700       2.7965853     0.021960496
       1431.0000       291.57217       98632.179       13169.882       2.7692500       3.2877500     -0.72675000       342.82600       3.2927416     0.031613163
       1436.0000       291.51922       98635.362       13117.384       3.0110000       2.3752500     -0.41750000       343.10100       2.8977703     0.029278287
       1441.0000       291.51734       98646.104       13083.862       2.2530000       2.9722500     -0.30850000       342.82200       3.3849047     0.030067400
       1446.0000       291.48730       98653.032       13049.914       4.2397500       2.8580000     -0.50600000       343.03800       3.4173546     0.027895936
       1451.0000       291.44919       98660.659       12988.033       3.0150000       1.8322500     -0.13050000       343.19900       2.8692497     0.030142272
       1456.0000       291.44326       98668.640       12988.777       3.4090000       2.2432500     -0.42500000       342.82200       2.7479235     0.026016302
       1461.0000       291.44302       98680.025       13042.636       3.0572500       1.1030000      0.45800000       343.15600       3.0385800     0.021368211
       1466.0000       291.44657       98682.923       13072.604       4.6957500       1.9017500      0.25775000       342.97100       3.0337812     0.023072513
       1471.0000       291.46825       98683.215       13120.389       2.9392500      0.72925000      0.32600000       343.19500       2.5472830     0.024823869
       1476.0000       291.51220       98681.083       13182.091       1.6627500       1.1142500      0.43175000       343.55400       2.8551576     0.026828519
       1481.0000       291.56313       98670.296       13235.589       2.0407500      0.85725000     -0.26000000       343.22000       3.1335465     0.026073261
       1486.0000       291.61723       98662.296       13300.875       3.3910000       1.7340000     -0.23325000       342.97900       3.7701321     0.027085080
       1491.0000       291.72943       98654.220       13422.194       2.6477500      0.80675010      0.15125000       343.28600       3.1889188     0.026010134
       1496.0000       291.78290       98647.194       13491.236       4.7047500       2.8175000     -0.23500000       342.80300       3.5354692     0.031135713
       1501.0000       291.80803       98636.107       13545.067       3.5807500       2.7172500     -0.79275010       342.70700       3.0452889     0.029558353
       1506.0000       291.81041       98632.254       13560.707       3.3165000       1.7910000     -0.16250000       343.10600       2.8504527     0.023023023
       1511.0000       291.77575       98631.762       13543.406       4.3575000       3.0580000      0.27450000       343.35200       2.9949688     0.028328445
       1517.0000       291.73311       98636.055       13496.547       2.9780000       1.5230000     -0.41925000       343.35500       3.2218365     0.027983723
       1522.0000       291.63760       98647.596       13381.890       3.2500000       2.1297500      0.51500000       343.43000       3.6908493     0.024218706
       1527.0000       291.63680       98654.664       13352.942       2.7470000      0.32075000      0.81175010       343.32100       3.2405067     0.032159995
       1532.0000       291.69712       98662.247       13365.899       1.4577500       1.1160000     0.034000000       343.25700       3.1316430     0.023243136
       1537.0000       291.70718       98670.252       13336.302       3.3165000       1.7047500      0.17500000       342.95700       2.7248592     0.020775962
       1542.0000       291.75705       98680.806       13328.503       3.8017500       2.9452500     0.012750000       343.01900       3.3198360     0.039222451
       1547.0000       291.76443       98682.850       13307.683       3.2300000      0.37625000      0.43525000       343.17700       3.3859951     0.033349450
       1552.0000       291.71229       98685.199       13236.584       3.3825000       2.0540000     -0.35625000       343.24700       3.7630626     0.033800633
       1557.0000       291.68260       98679.184       13203.830       2.2692500       1.7015000     -0.10425000       343.51800       3.3283676     0.027278493
       1562.0000       291.65937       98658.271       13193.722       4.1325000       1.6442500     -0.16675000       343.19400       2.9186083     0.029381863
       1567.0000       291.63937       98649.567       13200.782       5.2667500       2.1000000     -0.78275000       342.89700       2.7591984     0.030134660
       1572.0000       291.60113       98640.660       13216.933       4.5200000       2.3887500    -0.048750000       343.21400       3.4258854     0.027741039
       1577.0000       291.58727       98636.491       13234.694       5.7097500       2.9812500      0.66000000       343.06700       2.9425504     0.029933989
       1582.0000       291.60004       98640.153       13284.389       3.5535000       3.2167500      0.10475000       343.18000       2.8778021     0.028344713
       1587.0000       291.60004       98640.094       13314.921       4.4732500       3.1912500     -0.15550000       342.86300       3.3912644     0.029089848
       1592.0000       291.59979       98638.043       13325.494       2.8417500       3.5685000     -0.35550000       343.30800       2.6648204     0.026463558
       1597.0000       291.59968       98641.278       13351.822      0.94550000       2.5192500      0.25775000       343.77600       2.7596037     0.028180088
       1602.0000       291.60009       98647.317       13399.942       4.1185000       4.0402500     -0.28725000       343.31300       2.9814169     0.025000534
       1608.0000       291.60002       98654.286       13420.035       1.6125000       2.9675000      0.95625010       343.37000       2.7246837     0.033661963
       1613.0000       291.59133       98665.376       13418.418       4.7475000       4.7970000     -0.15850000       342.83800       3.1011097     0.024844635
       1618.0000       291.61029       98669.649       13437.078       3.6207500       3.9012500      0.66075000       343.05800       3.1982881     0.026841277
       1623.0000       291.64670       98670.575       13458.371       2.7047500       4.4330000     -0.39725000       343.10700       2.6959736     0.021318548
       1628.0000       291.66675       98671.707       13456.269       3.8380000       2.7717500    -0.034750000       343.42000       2.9253102     0.021810941
       1633.0000       291.70341       98670.074       13458.716       4.9647500       2.8350000     -0.30850000       343.12200       2.6723533     0.024938778
       1638.0000       291.71440       98669.933       13450.462       4.2192500       5.2930000     -0.49875000       342.68800       2.9402293     0.026280338
       1643.0000       291.70046       98673.126       13407.373       3.4457500       2.6975000      0.55625000       343.14500       3.2349049     0.031357501
       1648.0000       291.70058       98667.665       13394.081       2.3595000       2.1105000      0.62850000       343.21600       2.6819249     0.039276378
       1653.0000       291.70018       98657.889       13401.857      0.84500000       3.7585000     0.092750010       343.16600       2.6329205     0.035384268
       1658.0000       291.70012       98649.968       13394.189      0.32100000       3.6895000     -0.50500000       342.91600       2.4113124     0.027829215
       1663.0000       291.69968       98634.846       13377.551       1.8565000       3.3617500     -0.72425000       342.87800       2.4707710     0.033015224
       1668.0000       291.69950       98629.385       13375.342       1.3070000       2.8302500     0.097500000       343.34600       2.8848726     0.032220514
       1673.0000       291.69106       98627.130       13381.438      0.78700010       4.9015000      0.22275000       342.86400       2.8626084     0.036156393
       1678.0000       291.70967       98631.521       13377.866       1.1037500       3.3520000     -0.28125000       343.36400       2.4921683     0.030031849
       1683.0000       291.75524       98644.151       13373.559       1.5012500       3.4625000      0.87575010       343.46800       3.4432797     0.047843965
       1688.0000       291.75638       98650.090       13378.932       2.9737500       3.0122500      0.45375000       343.13300       2.6354054     0.023314929
       1693.0000       291.77662       98660.356       13383.114       2.0320000       3.1052500      0.49175000       343.31800       3.0566877     0.026144505
       1699.0000       291.71532       98666.344       13387.656      0.93500010       3.1057500       1.1932500       343.61400       2.5263140     0.023371609
       1704.0000       291.59975       98665.271       13407.630       1.2322500       5.0260000      -1.7047500       343.18500       2.9630167     0.030629699
       1709.0000       291.49898       98668.759       13388.664       4.5457500       4.4065000      0.23100000       342.58800       2.9016020     0.031334309
       1714.0000       291.43585       98670.902       13364.487       2.3945000       2.9075000      0.50725000       343.19300       3.0972595     0.032910397
       1719.0000       291.41477       98676.249       13324.372       3.1215000       5.5425000      -1.0622500       342.89100       2.6480856     0.031083290
       1724.0000       291.39390       98672.678       13286.727       2.1735000       4.1025000      0.87825010       342.83300       2.5213174     0.030500829
       1729.0000       291.37020       98658.325       13225.064    -0.080500010       3.7900000      0.87100010       343.03700       2.5935432     0.023409499
       1734.0000       291.38763       98650.420       13193.781       2.6780000       3.5590000       1.9310000       343.14800       2.5045806     0.027066376
       1739.0000       291.42969       98642.528       13177.665       3.1170000       2.8092500      0.75000010       343.17800       2.7428405     0.028107412
       1744.0000       291.49849       98625.841       13171.872       3.7137500       3.3220000      0.14450000       343.20700       2.4629969     0.027171009
       1749.0000       291.53903       98628.844       13175.813       2.4665000       2.0940000      0.23875000       343.31000       2.4062933     0.025962041
       1754.0000       291.60589       98646.824       13197.889       2.6750000       3.6917500      0.20075000       342.87900       2.0625854     0.025229027
       1759.0000       291.63030       98644.987       13228.848       4.1967500       3.1272500     -0.10900000       342.99000       2.2914751     0.026457068
       1764.0000       291.65057       98646.185       13281.002       1.7432500       3.6390000      -1.0257500       342.98900       2.0988815     0.027531376
       1769.0000       291.70038       98634.765       13409.150       3.4440000       3.1315000     0.023250000       343.23000       2.0392792     0.024377542
       1774.0000       291.71275       98632.184       13479.685       2.3390000       3.3920000      0.39275000       343.41000       2.0692602     0.030786530
       1779.0000       291.70055       98635.742       13528.349       2.9545000       5.9597500      0.44925000       342.87000       2.0082772     0.023643818
       1784.0000       291.65078       98650.070       13567.955       2.8880000       4.1480000     -0.33050000       343.13100       2.0375857     0.024753766
       1790.0000       291.63824       98661.675       13582.138       3.6665000       2.1830000      0.17075000       342.80600       1.9914649     0.020976699
       1795.0000       291.59672       98667.448       13559.971       3.5500000       4.7380000     -0.12000000       342.47600       2.0239698     0.021533873
       1800.0000       291.51663       98669.351       13497.250       3.0632500       2.8987500     -0.15200000       342.51900       2.0120790     0.024608003
       1805.0000       291.48737       98671.226       13461.846       2.4705000       2.6607500      0.36350000       343.11800       2.0568901     0.033517415
       1810.0000       291.46762       98670.145       13414.991       3.0457500       3.1187500     -0.23150000       343.36200       2.0477590     0.034639222
       1815.0000       291.43939       98670.107       13359.650       2.0390000       3.7475000     -0.92075000       342.93200       2.0917787     0.028385940
       1820.0000       291.44210       98671.860       13299.874       1.9550000       2.3320000     -0.44200000       343.18600       2.0556013     0.033188303
       1825.0000       291.45202       98670.814       13274.682       1.5762500       3.4597500     -0.26350000       343.44900       1.9691578     0.022985383
       1830.0000       291.42822       98669.889       13224.254       1.7565000       3.6397500     -0.38950000       343.19300       1.9705675     0.021434112
       1835.0000       291.44077       98665.615       13224.003       3.5407500       3.7447500     -0.50425000       342.77000       2.0002598     0.025484166
       1840.0000       291.52381       98655.904       13316.460       1.9675000       3.4935000      0.49325000       343.06700       2.0261009     0.034994444
       1845.0000       291.56295       98648.852       13361.942       2.4382500       2.1245000      0.40175000       343.42200       2.0707782     0.026265980
       1850.0000       291.59037       98637.379       13392.412       2.0742500       3.5382500     -0.16400000       343.15400       1.9924984     0.035595313
       1855.0000       291.60930       98632.677       13436.730       4.1160000       5.4665000      0.62350000       342.74500       1.9784991     0.022639120
       1860.0000       291.59964       98634.714       13484.417      0.66900000       3.4740000      0.27600000       343.02900       2.0925636     0.022607742
       1865.0000       291.59938       98634.881       13512.120       3.0252500       3.9790000     0.087250000       342.87700       2.0073884     0.026924506
       1870.0000       291.57032       98636.363       13531.748       1.7185000       2.0617500      -1.2410000       343.07100       2.0004901     0.024598913
       1876.0000       291.60065       98641.500       13572.686       2.1555000       2.5395000      0.57175000       343.29100       1.9458324     0.017728992
       1881.0000       291.67627       98646.674       13614.331       2.5815000       1.4765000      0.43525000       343.55300       1.9915129     0.023017030
       1886.0000       291.71643       98652.108       13617.137       3.2790000       2.6585000     -0.88250010       343.40700       2.0414547     0.031317144
       1891.0000       291.79064       98663.212       13618.094       5.4012500       3.3100000      0.12925000       342.43600       1.9553938     0.020745826
       1896.0000       291.82352       98668.500       13608.294       4.4297500       4.8827500     -0.62400000       342.59700       1.9609248     0.021276935
       1901.0000       291.81268       98669.945       13543.844       3.9672500       2.0345000     0.087000000       343.10300       1.9836836     0.024229294
       1906.0000       291.79887       98671.595       13508.884       2.8195000       3.4232500     0.069250000       342.81700       1.9850017     0.018965886
       1911.0000       291.80078       98670.139       13520.121       4.4520000       4.3872500     -0.39075000       342.70100       1.9469987     0.020126436
       1916.0000       291.74025       98670.098       13475.152       3.5032500       1.2595000       1.4520000       343.44200       1.9812423     0.022588780
       1921.0000       291.59336       98670.233       13391.760       3.8462500       3.7965000     -0.28925000       342.93200       1.9619958     0.020395337
       1926.0000       291.51675       98670.193       13323.877       4.6220000       2.7875000     -0.35025000       342.98100       1.9529004     0.023815967
       1931.0000       291.41688       98671.661       13215.053       4.6857500       1.5982500      0.11025000       343.06500       2.0167158     0.031075189
       1936.0000       291.36780       98670.348       13156.354       3.0290000       1.5397500      0.45050000       343.36200       1.9712160     0.021165689
       1941.0000       291.37446       98669.157       13105.838       2.8270000      0.70575000      0.37550000       343.53300       1.9893316     0.026581093
       1946.0000       291.40162       98664.475       13109.711       2.2475000       1.2797500     -0.84725000       342.75200       1.9901485     0.023071391
       1951.0000       291.48933       98654.365       13188.838       2.3690000       2.4505000      0.48125000       343.64300       1.9806380     0.026838773
       1956.0000       291.51538       98647.413       13221.461       2.2670000      0.61700000      0.95725010       343.63200       1.9758600     0.025141062
       1961.0000       291.55254       98637.404       13277.100       2.1845000       1.1757500     -0.50325000       343.47400       1.9994177     0.028113364
       1967.0000       291.56364       98631.374       13323.288       3.4090000       3.6587500     -0.27675000       342.59900       1.9798849     0.020132749
       1972.0000       291.50129       98629.288       13308.705       3.1112500       3.1542500      0.24625000       342.98900       1.9726787     0.022593212
       1977.0000       291.48759       98629.552       13349.061       5.0887500       2.1120000     0.081500000       342.73300       1.9658165     0.025021427
       1982.0000       291.50006       98634.570       13445.806       4.4490000       1.9290000      0.46400000       343.08100       1.9640686     0.022718192
       1987.0000       291.50006       98636.601       13481.461       6.6307500       1.5655000      0.17300000       343.13200       1.9993191     0.026981501
       1992.0000       291.47799       98637.878       13497.707       5.2485000       3.0332500     -0.32950000       343.12700       1.9907739     0.027646751
       1997.0000       291.51042       98642.417       13526.375       3.9495000    -0.068750000       1.4595000       343.48600       1.9706830     0.020563042
       2002.0000       291.58328       98645.483       13537.781       5.5475000       1.2182500      0.41900000       343.33100       1.9850645     0.025712849
       2007.0000       291.62269       98654.343       13537.037       4.7785000       1.7927500      0.57500000       343.17100       1.9937628     0.026220225
       2012.0000       291.68633       98674.827       13540.057       4.8892500       2.4375000     -0.35825000       342.50100       1.9890666     0.020677505
       2017.0000       291.72989       98680.359       13546.059       2.9742500       3.6732500      0.18800000       343.15700       1.9624788     0.024723848
       2022.0000       291.74216       98679.266       13526.002       3.3050000       1.3305000    -0.070000000       342.99500       1.9876268     0.031311954
       2027.0000       291.76230       98682.683       13522.266       2.7460000       1.4642500      0.43825000       343.66300       1.9737016     0.030644699
       2032.0000       291.79948       98681.155       13544.002       3.1680000       1.9645000     -0.14975000       343.15000       2.0212609     0.023659058
       2037.0000       291.81349       98679.173       13555.899       3.1722500       2.5095000      0.33875000       343.66500       2.0088359     0.029600729
       2042.0000       291.80047       98681.716       13553.324       5.0965000       1.7715000      0.34600000       342.67100       1.9856457     0.027347748
       2047.0000       291.80059       98680.480       13563.027       4.4432500       1.1557500     -0.15550000       343.38900       2.0092987     0.025966479
       2052.0000       291.81171       98671.637       13604.285       4.1700000       2.3310000     -0.95575000       343.01600       1.9920041     0.023018121
       2058.0000       291.79041       98666.565       13593.889       3.2715000       1.0277500      0.63550000       343.59600       1.9778662     0.023584876
       2063.0000       291.75386       98667.485       13554.193       3.1165000       1.5487500      0.66250000       343.42900       1.9833648     0.026388216
       2068.0000       291.73385       98661.697       13540.072       3.7980000       1.7545000     -0.36650000       342.91900       1.9972775     0.031849199
       2073.0000       291.70531       98648.764       13518.035       2.9080000       2.1572500      0.46025000       343.03200       2.0153701     0.020956046
       2078.0000       291.67536       98647.374       13486.166       2.7725000       2.3257500     0.079000000       343.30100       2.0008135     0.023630600
       2083.0000       291.66300       98651.718       13470.187       3.2330000       3.2812500      0.24150000       342.88600       1.9691922     0.024803205
       2088.0000       291.62459       98647.896       13431.580       2.9505000       2.2270000       1.2835000       343.50200       1.9692395     0.028973981
       2093.0000       291.54224       98647.161       13348.197       4.8332500       4.5452500     -0.48500000       343.06100       1.9840326     0.022537215
       2098.0000       291.52954       98643.501       13320.773       4.1885000       2.4457500     0.060250000       343.25200       1.9804727     0.021354917
       2103.0000       291.54215       98628.528       13318.253       3.2532500       2.6590000      0.67175000       342.99200       1.9611499     0.033262980
       2108.0000       291.55120       98627.095       13308.596       2.5177500       1.0440000    -0.031250000       343.59100       1.9706717     0.022424437
       2113.0000       291.60244       98634.921       13312.283       2.4910000      0.90050010      0.21575000       343.81800       1.9909582     0.022092953
       2118.0000       291.61385       98636.968       13322.140       3.2207500       1.1820000     0.024250000       343.17700       1.9486480     0.022454473
       2123.0000       291.60004       98638.812       13327.570       1.1990000      0.34075000     -0.48575000       343.83800       1.9485431     0.019184109
       2128.0000       291.60004       98643.713       13354.069       2.4312500       1.0710000      0.41850000       343.61900       2.0011652     0.025111938
       2133.0000       291.59109       98648.618       13391.446       1.4085000       1.7795000     -0.35425000       343.42100       1.9990725     0.025621043
       2138.0000       291.60961       98654.446       13460.138       4.1220000       2.0080000      -1.1767500       342.99400       1.9848265     0.022107159
       2143.0000       291.64527       98665.534       13567.977       2.9892500       3.0587500       1.0700000       342.76600       2.0004695     0.026072318
       2149.0000       291.66962       98670.357       13636.474       2.3377500      0.89550010      0.71700000       343.47700       1.9883232     0.022243332
       2154.0000       291.69431       98670.906       13705.297       2.7257500       2.8297500     -0.23525000       342.58900       2.0184469     0.024472655
       2159.0000       291.74674       98667.314       13737.500       3.6457500       1.1982500      0.66800000       342.90200       1.9916931     0.024192128
       2164.0000       291.79603       98669.036       13755.097       3.1025000       2.5227500    -0.053000000       343.18500       1.9847756     0.026752131
       2169.0000       291.90121       98676.342       13773.464       4.1285000       1.3030000      0.32000000       343.47900       2.0014987     0.024338071
       2174.0000       291.96290       98680.312       13785.729       3.3825000       2.6932500     -0.32900000       342.88900       2.0202366     0.024103813
       2179.0000       292.00023       98690.332       13763.684       2.2677500       1.3070000      0.41950000       343.75800       1.9859715     0.024346517
       2184.0000       292.01282       98692.837       13751.424       2.4985000       1.9695000    -0.031500000       343.47000       1.9934654     0.022761093
       2189.0000       292.00089       98690.425       13743.600       1.6242500       1.3507500     -0.11300000       343.85200       1.9727251     0.023171554
       2194.0000       291.95783       98681.273       13751.188       2.7552500      0.82650010     -0.28175000       343.58900       1.9701780     0.027424095
       2199.0000       291.91632       98675.160       13729.641       1.3412500       1.1722500      0.76950000       344.12500       1.9871865     0.025786344
       2204.0000       291.83887       98664.053       13689.818       2.6810000      0.86200000     -0.42400000       343.64200       1.9879342     0.021815843
       2209.0000       291.87529       98664.627       13719.238       2.1105000       1.4200000      0.19675000       343.52900       1.9721048     0.024416625
       2214.0000       291.85696       98660.722       13693.536       1.4197500       1.5477500       1.0677500       343.99300       1.9834336     0.022061513
       2219.0000       291.81045       98654.269       13621.900       3.9315000      0.13825000     -0.46225000       343.40400       1.9650104     0.024591042
       2224.0000       291.80087       98650.299       13596.139       1.2457500       1.4110000      0.72450010       344.21800       1.9436084     0.024635484
       2229.0000       291.79134       98646.328       13573.205      0.90350000       2.0895000    -0.040750000       343.93200       1.9881777     0.028360310
       2234.0000       291.74334       98639.715       13510.306       1.9365000       2.4035000     -0.18125000       343.47600       2.0071724     0.024035603
       2240.0000       291.72760       98636.792       13510.492       2.2240000       2.2580000     -0.55125000       343.98700       1.9726817     0.024190878
       2245.0000       291.74912       98634.740       13533.725       4.2062500       3.4020000      -1.1460000       342.64600       1.9629307     0.022024245
       2250.0000       291.77883       98631.101       13558.448       3.4527500       2.7932500     -0.22650000       343.18700       2.0017825     0.028209786
       2255.0000       291.80025       98629.204       13588.881       3.6102500       2.2862500     -0.43725000       342.93400       1.9419658     0.027052915
       2260.0000       291.86731       98629.021       13669.839       2.2187500       2.2767500     -0.74725000       343.54100       1.9560068     0.021304943
       2265.0000       291.91568       98630.206       13725.081       1.2780000       2.2032500      0.11050000       343.54600       1.9768987     0.027567952
       2270.0000       291.90555       98633.670       13736.987       3.1047500       3.4350000      0.12875000       343.63200       1.9716859     0.031358433
       2275.0000       291.94752       98635.625       13788.475       3.8345000       3.7460000     -0.58275000       342.71400       1.9912252     0.028361627
       2280.0000       292.07106       98636.400       13875.416       3.3672500       2.9925000      0.27175000       343.56300       1.9863282     0.025470343
       2285.0000       292.11847       98640.579       13939.205       4.6782500       4.5177500      0.75100000       342.57800       2.0066462     0.025148467
       2290.0000       292.14590       98645.832       14056.557       3.1540000       3.7940000      0.25000000       342.72000       1.9589303     0.023327885
       2295.0000       292.16393       98651.046       14087.623       2.2512500       1.9347500     0.062250000       343.10300       1.9929433     0.022495410
       2300.0000       292.12359       98663.137       14047.618       1.5600000       3.2212500     -0.40675000       343.23500       1.9731650     0.022127949
       2305.0000       292.09336       98667.855       14006.055       2.6970000       5.0842500      -1.2882500       343.15200       1.9644070     0.022154917
       2310.0000       292.08005       98664.383       13886.183       1.5435000       1.6745000      0.47000000       343.80000       1.9710379     0.020697403
       2315.0000       292.04897       98665.331       13813.949       1.3812500       5.0140000      -1.1092500       342.36900       2.0137598     0.036798264
       2320.0000       291.99106       98666.049       13776.293       2.8272500       4.3517500     -0.44550000       342.27400       1.9938020     0.023478672
       2325.0000       291.94096       98665.042       13714.363       3.3035000       3.0515000     -0.67750000       343.06300       2.0014312     0.024417644
       2331.0000       291.85405       98662.080       13620.522       2.4395000       2.4207500      0.72000000       343.37400       2.0034386     0.025794704
       2336.0000       291.83139       98665.874       13582.969       2.2597500       2.2805000     -0.14775000       343.44400       1.9894102     0.025926614
       2341.0000       291.85626       98674.875       13558.788       2.5150000       2.2540000     -0.52175000       343.16900       1.9772723     0.025763037
       2346.0000       291.84625       98676.530       13530.704       3.3622500       2.0877500      0.13925000       343.48400       2.0057481     0.025914440
       2351.0000       291.85681       98681.200       13538.607       3.2607500       4.9022500     -0.68925010       342.53600       1.9885219     0.025963854
       2356.0000       291.85283       98682.024       13534.568       2.8615000       2.8637500     -0.25775000       343.71300       1.9343680     0.028282706
       2361.0000       291.80528       98671.505       13500.278       4.4315000       3.9097500      -1.4570000       342.73800       1.9983965     0.025891433
       2366.0000       291.78915       98668.362       13497.413       2.1252500       4.1075000      0.93250010       342.97300       1.9800679     0.028245033
       2371.0000       291.84024       98670.304       13544.532       3.6675000       4.8777500      -1.0412500       342.75600       1.9498730     0.020999578
       2376.0000       291.79847       98670.282       13543.011       2.8885000       2.7895000      0.29075000       343.58900       1.9858407     0.023710630
       2381.0000       291.66047       98671.550       13502.717       1.7245000       3.8412500      0.37225000       343.04600       1.9506501     0.021975809
       2386.0000       291.62772       98670.156       13507.087       1.7860000       4.3497500     -0.15725000       342.72900       2.0006721     0.025390720
       2391.0000       291.59208       98669.166       13521.345       2.0637500       3.1860000     -0.28325000       343.15400       1.9921144     0.033634896
       2396.0000       291.58305       98664.524       13521.875       2.6197500       2.9262500      0.19500000       343.08400       1.9790506     0.028744351
       2401.0000       291.70316       98653.314       13561.937       3.5667500       3.5750000     -0.42175000       342.74900       1.9933250     0.025518593
       2406.0000       291.72169       98647.779       13564.313       2.4272500       2.9542500     -0.36900000       343.48800       1.9348074     0.023305849
       2411.0000       291.68920       98642.626       13527.530       2.9320000       2.1417500      0.63550000       343.71900       1.9574214     0.023156162
       2416.0000       291.64094       98638.024       13491.168       1.0725000       1.2732500      0.55500000       343.35900       1.9479062     0.019417525
       2422.0000       291.49544       98636.130       13411.179       2.0377500      0.90775010      0.29400000       344.07000       1.9449393     0.022433180
       2427.0000       291.47455       98634.158       13408.529       3.8115000       1.1215000     0.052000000       343.53400       1.9886536     0.023146104
       2432.0000       291.49792       98630.578       13444.708       5.1355000       2.0777500     -0.68675010       342.68400       1.9407878     0.025510425
       2437.0000       291.49408       98629.268       13440.593       2.0797500       2.7870000      0.72200010       343.64200       2.0144832     0.027283676
       2442.0000       291.54533       98630.319       13457.042       2.1467500       3.4785000     -0.68300000       342.97900       1.9603281     0.021880463
       2447.0000       291.56876       98630.334       13475.477       2.5927500       1.5442500      0.38400000       343.91900       1.9900193     0.029742879
       2452.0000       291.53128       98630.456       13448.297       1.9207500       3.5897500     -0.24575000       342.81100       1.9561190     0.020470056
       2457.0000       291.55319       98630.487       13462.660       5.7882500       2.3980000       1.3595000       342.86900       2.0112839     0.026904664
       2462.0000       291.62842       98630.503       13525.566       2.2977500       2.9132500      0.47000000       343.81900       1.9877169     0.021619313
       2467.0000       291.67851       98630.578       13576.702       4.1095000       2.8542500     -0.30550000       342.62400       1.9947917     0.022033634
       2472.0000       291.71815       98630.317       13615.806       2.4742500       2.5262500      0.53400000       343.31100       1.9899880     0.027492833
       2477.0000       291.78463       98630.333       13676.942       3.6190000       3.4550000     -0.40300000       342.84200       2.0048976     0.021221360
       2482.0000       291.88487       98629.191       13787.006       2.8625000       2.6250000    -0.072250000       343.14100       1.9893277     0.022373036
       2487.0000       291.93899       98630.817       13839.090       2.5822500       2.1655000     -0.47175000       342.95800       2.0009531     0.029203991
       2492.0000       292.02147       98632.157       13878.688       3.0647500      0.14325000      0.58950000       343.31500       2.0031504     0.029385380
       2497.0000       292.01667       98637.304       13892.583       3.4080000       1.3277500     -0.33100000       343.47200       2.0098417     0.023845195
       2502.0000       291.95252       98648.469       13881.613       4.4062500     0.019000000     -0.14075000       343.06100       1.9799521     0.029003048
       2508.0000       291.84020       98654.807       13824.368       5.0937500       1.9567500     -0.11700000       343.21700       1.9942124     0.021902472
       2513.0000       291.65628       98660.954       13732.733       3.9380000       2.3022500     0.071500000       343.08900       1.9632219     0.021814215
       2518.0000       291.57344       98663.305       13675.814       2.2075000       1.7790000     -0.47050000       343.18900       1.9759677     0.018526307
       2523.0000       291.49068       98660.353       13596.034       4.6132500       2.0895000     -0.14550000       343.10200       2.0019162     0.028272857
       2528.0000       291.45698       98660.366       13542.653       3.8820000      0.47600000     0.093500000       343.54500       1.9653632     0.027314890
       2533.0000       291.48200       98660.075       13509.676       1.9550000       1.0855000       1.3347500       343.69600       1.9808536     0.021349131
       2538.0000       291.51923       98660.015       13498.573       2.2060000      0.16550000       1.5255000       343.54700       1.9639673     0.026853283
       2543.0000       291.58265       98659.389       13492.952       3.8397500       1.6780000     -0.81275000       342.83400       1.9553891     0.021251186
       2548.0000       291.64070       98661.202       13500.170       3.9850000       1.1155000      0.23450000       342.92800       2.0069562     0.026032602
       2553.0000       291.76029       98664.804       13546.452       5.8365000       1.4510000      0.11525000       342.82200       1.9865159     0.022832028
       2558.0000       291.78371       98666.806       13572.447       3.5890000       2.8825000    -0.080250000       342.93900       2.0043874     0.028755536
       2563.0000       291.76562       98670.635       13589.184       2.6620000      0.93275000      0.17325000       343.59200       1.9727637     0.023630515
       2568.0000       291.73838       98671.850       13614.423       2.8402500      0.75000010      0.82650010       343.39700       2.0112655     0.023658817
       2573.0000       291.65023       98671.243       13646.470       4.1282500       1.9635000    -0.017500000       342.67200       1.9738594     0.023600251
       2578.0000       291.61889       98669.377       13680.305       4.2030000       1.4637500     -0.22550000       343.49000       1.9806923     0.023198802
       2583.0000       291.61512       98664.765       13729.404       2.9475000       2.3377500      0.18075000       343.46200       1.9850830     0.024044813
       2588.0000       291.56679       98664.620       13731.943       2.5040000       3.1535000      0.26225000       343.78400       1.9821747     0.032327606
       2593.0000       291.50955       98664.446       13723.722       2.7902500       2.3872500     -0.29525000       343.22100       1.9840226     0.024797043
       2599.0000       291.46111       98665.678       13696.920       2.4462500       1.5540000      0.43525000       343.37600       1.9843203     0.023511144
       2604.0000       291.38856       98670.990       13631.259       2.3920000       3.4882500     -0.63875000       342.66800       1.9953700     0.019710644
       2609.0000       291.41463       98670.157       13634.950       3.2655000       2.8652500     -0.60900000       342.88200       1.9811681     0.019593144
       2614.0000       291.40586       98670.097       13599.687       1.9660000       1.8647500     0.053250000       343.42300       1.9726916     0.023830696
       2619.0000       291.35481       98670.394       13500.449       2.4760000       2.0970000      0.51300000       343.33200       2.0049951     0.025492472
       2624.0000       291.34382       98670.454       13462.243       1.6495000       1.4625000     -0.36700000       343.59400       1.9997805     0.021848685
       2629.0000       291.35999       98671.802       13445.356       1.7517500       1.1720000      0.47950000       343.63300       2.0128237     0.028124892
       2634.0000       291.35017       98670.943       13420.285       3.4967500      0.78300010     -0.12150000       343.93600       1.9718082     0.022463368
       2639.0000       291.34041       98668.849       13411.505       3.0485000       1.7892500      0.11250000       343.23600       2.0111226     0.027252909
       2644.0000       291.37109       98665.416       13455.417       1.9862500       1.9610000     -0.21325000       343.23400       1.9878654     0.026433964
       2649.0000       291.31659       98663.382       13462.028       2.0575000       2.4035000     -0.39575000       342.71300       1.9842232     0.028726549
       2654.0000       291.20054       98659.706       13441.173       3.0012500       3.0355000     -0.58725010       342.82400       1.9998568     0.022832375
       2659.0000       291.08490       98663.179       13440.837       2.3922500       2.5465000     -0.22750000       342.87700       1.9783183     0.022267330
       2664.0000       291.03014       98661.452       13443.415       3.3505000       2.1682500     -0.50675000       342.82400       1.9798492     0.026907179
       2669.0000       291.01495       98654.300       13405.603       4.2390000       2.0600000    -0.017250000       342.77000       1.9714109     0.029754552
       2674.0000       291.03119       98650.330       13418.198       3.9920000       2.9882500     -0.79900000       343.05500       1.9690768     0.021540696
       2679.0000       291.08435       98646.360       13459.849       3.7110000       2.3877500     0.039000000       343.54600       1.9674881     0.023920782
       2684.0000       291.20560       98639.097       13545.523       3.4495000       1.7092500      0.30675000       343.30800       1.9618286     0.033507839
       2690.0000       291.23812       98640.305       13577.827       5.4352500       2.9465000     -0.61825000       342.56500       2.0127641     0.023912828
       2695.0000       291.31017       98640.321       13628.235       2.4892500       2.9160000      0.13350000       342.99300       1.9769848     0.024822518
       2700.0000       291.40396       98640.176       13652.193       3.0727500       3.0270000      0.21825000       342.56600       1.9786581     0.021534540
       2705.0000       291.46443       98640.117       13695.458       3.9255000       2.0747500     -0.18400000       342.28300       1.9782354     0.024913537
       2710.0000       291.54335       98640.371       13773.434       3.4305000       1.2710000      0.70900010       343.25200       2.0114990     0.024433427
       2715.0000       291.62123       98640.410       13861.482       4.2830000       2.4515000     -0.16000000       342.39200       1.9984335     0.023148786
       2720.0000       291.66806       98641.732       13981.498       3.2950000       1.9912500     -0.52200000       342.80500       2.0094552     0.034410890
       2725.0000       291.70788       98640.665       14055.541       2.8405000       2.0757500     -0.39850000       342.44500       1.9734818     0.028059881
       2730.0000       291.76578       98636.773       14146.982       2.2690000       2.2945000     -0.20450000       342.93900       2.0001188     0.028267221
       2735.0000       291.81456       98634.682       14195.234       1.3520000      0.97300000    -0.083500010       343.50200       1.9995969     0.028384215
       2740.0000       291.84796       98631.335       14191.751       2.4137500       1.5455000     -0.15175000       343.56100       1.9796166     0.026586723
       2745.0000       291.85674       98629.475       14164.649       2.4452500       1.7000000     0.061500000       342.93000       2.0099693     0.022031721
       2750.0000       291.85585       98630.274       14080.823       1.3972500       1.2710000     -0.38350000       343.55600       1.9763860     0.027796074
       2755.0000       291.85471       98630.274       14035.679       1.6797500       1.8980000     -0.34550000       343.39500       2.0149073     0.030148950
       2760.0000       291.80983       98630.274       13975.857       1.1785000       2.1925000      0.58025000       343.37900       1.9864032     0.023391558
       2765.0000       291.79122       98630.274       13931.053       2.9297500      0.38850000     -0.50625000       343.29400       1.9416917     0.028946536
       2770.0000       291.78546       98633.282       13924.356       3.0795000       2.5162500      0.20200000       343.57600       1.9537612     0.021912583
       2775.0000       291.79675       98631.019       13910.993       2.2102500       1.7970000     -0.11825000       343.49300       1.9198569     0.023177432
       2781.0000       291.82533       98622.707       13875.300       1.2860000       2.2950000     -0.56325000       343.76800       1.9807874     0.021181480
       2786.0000       291.85940       98618.740       13873.689       1.6492500       2.2462500      0.25450000       343.85200       1.9826580     0.023632695
       2791.0000       291.97251       98611.224       13922.378       1.5915000       1.8857500      0.70750000       343.85300       1.9838943     0.027308158
       2796.0000       291.96802       98607.969       13918.029       1.6780000       3.0565000    -0.022500000       343.45600       2.0016350     0.023895526
       2801.0000       291.86760       98610.459       13876.467      0.45825000       1.5547500       1.1622500       343.43500       1.9491071     0.031652223
       2806.0000       291.83786       98610.560       13879.616       2.6432500       2.3145000     -0.19625000       343.24900       2.0180186     0.031951148
       2811.0000       291.75331       98610.345       13865.140       1.9690000       2.8047500      0.22400000       343.81500       1.9346722     0.026572669
       2816.0000       291.72453       98610.363       13879.442       2.5847500       3.0240000      0.10450000       343.27100       1.9627428     0.024611830
       2821.0000       291.80865       98610.480       13986.084       3.3007500       3.3322500      0.25400000       343.48000       1.9564611     0.037473288
       2826.0000       291.81103       98610.561       14002.739       1.9432500       2.1427500    -0.057500000       343.58900       1.9759907     0.030069244
       2831.0000       291.77505       98610.306       13974.113       4.1110000       3.0152500     -0.63700000       343.54900       1.9624238     0.024485334
       2836.0000       291.74117       98610.328       13946.143       1.8282500       3.3295000      -1.4365000       342.72900       1.9212115     0.028240013
       2841.0000       291.66620       98610.204       13861.846       1.8382500       5.7355000     -0.97650000       342.79000       1.9652298     0.023310391
       2846.0000       291.62953       98610.185       13816.277       3.0222500       2.5922500      0.13675000       343.50100       1.9580386     0.026868689
       2851.0000       291.60465       98610.459       13797.323       2.7077500       2.6212500      0.11900000       342.87800       1.9576158     0.022810272
       2856.0000       291.58839       98610.559       13759.200       1.4407500       2.4345000      0.29300000       343.44100       2.0095188     0.024900823
       2861.0000       291.57340       98610.344       13698.167     0.096000000       1.5507500      0.89425000       344.06100       1.9424745     0.022307360
       2866.0000       291.60148       98610.363       13684.059       4.7240000       3.1932500     -0.18800000       343.53900       1.9876538     0.027294539
       2872.0000       291.66267       98610.443       13666.023       2.7492500       2.8702500     -0.44500000       342.59300       1.9822457     0.031509410
       2877.0000       291.73592       98610.546       13704.542       1.7447500       2.8787500     -0.69775000       343.35100       1.9406784     0.030484094
       2882.0000       291.84056       98610.336       13808.305      0.55125000       3.4650000      0.17100000       343.71000       1.9692212     0.035634739
       2887.0000       291.97314       98610.336       13898.016       3.7252500       3.1040000     0.096250010       343.07200       1.9189123     0.033675370
       2892.0000       292.13486       98610.478       13984.688       2.9477500       3.0430000     -0.76600000       342.56700       1.9878018     0.021753195
       2897.0000       292.29020       98610.582       14132.123      0.46300000       2.7202500      0.64025000       343.89300       1.9774862     0.028806689
       2902.0000       292.52245       98610.349       14342.370      0.18500000       2.5997500      0.33400000       343.79600       2.0036857     0.023784404
       2907.0000       292.63691       98610.365       14499.339       1.9767500       4.6797500      0.43475000       343.24300       1.9858713     0.032312290
       2912.0000       292.74514       98610.494       14769.380       2.5537500       7.3932500     -0.33525000       342.31300       1.9774310     0.022666951
       2917.0000       292.72078       98610.581       14810.325       1.1925000       5.5667500     -0.11875000       342.57300       1.9872717     0.023955177
       2922.0000       292.56553       98606.995       14716.823      0.78950010       4.2887500      0.62625000       343.03800       1.9928840     0.028457468
       2927.0000       292.43636       98611.892       14594.955       3.2095000       4.3350000     -0.63825010       342.74600       2.0134805     0.027007647
       2932.0000       292.18540       98624.194       14292.688       3.0717500       1.3742500       1.4315000       343.86200       2.0050766     0.027871703
       2937.0000       292.05333       98628.633       14124.091       1.7517500       1.8302500       1.3590000       344.15500       1.9112508     0.040702154
       2942.0000       291.95938       98638.286       13973.026       2.1710000       2.6510000      -1.1375000       343.27500       1.9981961     0.023392093
       2947.0000       291.89830       98637.243       13845.651       2.3375000       3.1587500     0.027750000       343.37000       1.9300806     0.028649703
       2952.0000       291.85432       98622.157       13726.775       3.0330000       4.5067500     -0.92850010       343.08500       1.9559525     0.025418918
       2957.0000       291.90690       98616.801       13694.885       3.5930000       2.5112500     -0.28325000       343.54500       1.9668023     0.029781126
       2963.0000       292.08477       98609.545       13730.456       3.8337500       4.5575000     -0.60100000       342.27700       1.9853107     0.020886621
       2968.0000       292.16527       98607.182       13736.947       3.0442500       4.1872500     -0.90475000       342.65300       2.0184523     0.022054771
       2973.0000       292.30513       98610.195       13808.627       1.1300000       2.1550000      0.83125000       344.24200       1.9711474     0.024678996
       2978.0000       292.36937       98610.181       13839.445       4.5202500       2.7202500      -1.0815000       343.61600       1.9901880     0.029969427
       2983.0000       292.35463       98610.465       13830.203       3.0847500       3.0332500     -0.51400000       342.83700       1.9430352     0.030863129
       2988.0000       292.35551       98610.490       13827.847       3.9745000       2.8050000     -0.43800000       343.27800       1.9582492     0.027799445
       2993.0000       292.36670       98608.591       13852.174       1.3185000       3.1500000     -0.54350000       343.53500       1.9990744     0.020006211
       2998.0000       292.33993       98612.345       13839.419       2.7255000       3.7047500     -0.99450000       342.62700       1.9628491     0.037802349
       3003.0000       292.27121       98621.255       13780.438       2.1902500       2.7765000     -0.17700000       343.12200       1.9659276     0.024426188
       3008.0000       292.20206       98621.524       13751.301       2.4652500       2.6977500     0.072000000       343.96600       1.9533661     0.031941994
       3013.0000       292.12339       98621.450       13727.716       2.7137500       1.3417500      0.10300000       344.42500       1.9986575     0.034383121
       3018.0000       292.03421       98619.652       13708.636       2.4310000       1.5775000      0.26700000       344.32900       2.0053495     0.023577485
       3023.0000       291.89086       98609.675       13679.581       2.8747500       3.5135000      0.51600000       344.20800       1.9361070     0.036959676
       3028.0000       291.84661       98607.422       13685.860       3.4400000       4.4115000      -1.0427500       342.91900       1.9617090     0.031122138
       3033.0000       291.81317       98610.465       13709.044       3.4245000       3.3992500     -0.73675000       342.87800       1.9723531     0.025743838
       3038.0000       291.86629       98610.490       13747.866       3.1262500       4.2440000      -1.2595000       343.12900       1.9289268     0.029285410
       3043.0000       292.02969       98610.464       13823.991       2.3070000       3.9522500     -0.18400000       343.70600       1.9810110     0.022948482
       3048.0000       292.12047       98610.490       13867.272       2.3202500       3.1850000      0.61250000       343.22800       1.9798564     0.023114881
       3054.0000       292.26208       98610.211       13911.907       3.1182500       3.2230000      0.38575000       343.58700       1.9625507     0.029028932
       3059.0000       292.33065       98610.215       13950.237       2.6807500       2.9875000      0.16950000       343.47100       1.9480546     0.028173049
       3064.0000       292.36374       98610.191       14016.343       4.5780000       3.3980000     -0.35650000       343.11000       1.9617382     0.017991792
       3069.0000       292.40005       98610.425       14202.660       4.1635000       3.9835000     -0.29100000       342.10100       1.9834087     0.029091865
       3074.0000       292.37460       98610.473       14263.863       3.3167500       3.1260000    0.0015000000       342.97600       1.9728160     0.029251310
       3079.0000       292.21009       98611.833       14229.326       2.8005000       2.8022500     -0.24625000       343.21300       1.9529978     0.031834380
       3084.0000       292.13816       98610.975       14228.630       3.7037500       3.0682500     -0.44575000       342.96600       1.9592043     0.032642391
       3089.0000       292.09087       98608.880       14205.061       2.4260000       2.6510000     -0.44325000       342.84500       1.9714059     0.028751023
       3094.0000       292.03760       98605.249       14104.991       2.2692500       2.2750000     -0.57075000       343.09700       1.9289395     0.029673755
