MIRICO/SHELL project - Processed LDS file generated on
Fri Jul 14 15:12:45 2017
Time stamp for record start
05/11/2017  13:13:11.0000
Nb of points in the record
         613
Beam position index
       5.0000000
Beam angle (degrees)
       8.5390000
Open Path length (m)
       83.010000
****************** Temporal data record ************************
Elapsedtime_sec Temp_K Press_Pa Humidity_ppmv WindX_m/s WindY_m/s WindZ_m/s Speedofsound_m/s CH4vmr_ppmv CH4vmrerror_ppmv  
      0.00000000       293.59050       98663.136       13712.460       2.6915000       2.0657500      0.38575000       345.28100       3.1540907     0.036424700
       5.0000131       293.64411       98655.632       13777.962       5.0670000       3.7660000     -0.24750000       343.81800       3.4378517     0.035652937
       9.9999860       293.53165       98628.684       13811.306       2.6252500       2.4167500      0.16800000       344.55000       3.4587956     0.033827247
       14.999999       293.49210       98620.624       13819.681       3.6532500       1.8932500      0.19850000       344.47500       3.2291393     0.036847684
       20.000012       293.44826       98619.074       13777.226       6.2150000       4.1440000      -1.0320000       343.00000       3.3855720     0.038014404
       25.000025       293.38888       98622.748       13741.852       5.3427500       3.0562500     -0.34425000       344.29500       3.2322419     0.036768135
       29.999998       293.33407       98648.782       13697.869       4.9687500       2.8592500     -0.24225000       344.32600       4.6535939     0.038930670
       36.000006       293.28616       98660.780       13622.575       5.0332500       3.0510000      0.18575000       344.16100       3.8585549     0.039519650
       41.000019       293.15961       98668.738       13503.700       3.8992500       1.4647500       1.0575000       345.14000       3.7970618     0.036726537
       45.999992       293.18196       98667.590       13468.733       3.4182500       1.5432500      0.33575000       345.46900       3.8923095     0.036017651
       51.000005       293.32863       98649.192       13453.117       4.1920000       1.3520000     -0.44900000       343.85600       3.3296853     0.037256859
       56.000018       293.43624       98641.525       13459.132       2.2412500       2.2072500     0.021500000       345.29900       3.6075232     0.041459973
       60.999991       293.64355       98628.033       13539.797       2.3192500       2.4607500     0.044500000       346.33400       2.7281448     0.036235734
       66.000004       293.76132       98627.355       13597.618       4.3322500       4.1987500     -0.25200000       345.18700       2.1490767     0.037505554
       71.000017       293.86769       98641.494       13665.003       5.4542500       3.6947500     -0.21450000       343.31200       2.7682061     0.038400078
       75.999990       293.87800       98647.528       13707.486       2.8395000       3.8587500     -0.31500000       344.95600       3.1963591     0.040924141
       81.000003       293.81841       98661.369       13773.490       4.8130000       2.5902500     -0.11575000       344.69400       3.0775563     0.039641648
       86.000016       293.73272       98663.559       13780.225       4.5715000       2.1667500     -0.38625000       344.63800       2.8869162     0.036808131
       90.999989       293.51053       98656.251       13735.103       1.5570000       3.2327500       1.6925000       345.68100       2.6651970     0.039001298
       96.000002       293.38737       98648.075       13682.599       3.4825000       2.9190000     -0.59200000       345.24600       3.3235376     0.034722947
       101.00002       293.26263       98623.398       13574.378       4.3732500       4.6525000     0.048250000       343.43100       3.9844588     0.032856053
       105.99999       293.20833       98621.148       13511.886       3.0645000       2.7035000     -0.61125000       344.17800       3.1635748     0.038429819
       111.00000       293.26920       98629.684       13470.106       4.2402500       2.7502500     -0.26475000       343.70400       3.7122411     0.037521978
       116.00001       293.24579       98636.180       13405.955       5.0355000       1.4715000     -0.77700000       343.63400       3.6135515     0.040455020
       120.99999       293.27485       98661.541       13379.953       2.9030000       2.8870000     -0.30775000       345.35400       2.5750290     0.039920473
       127.00000       293.17209       98672.938       13269.168       2.5105000      0.99375000    -0.079000000       345.22300       3.3090646     0.037944212
       132.00001       292.95665       98674.750       13116.533       5.8947500       4.1127500    -0.022500000       344.21000       2.9281545     0.036027689
       137.00002       292.81585       98669.694       12987.494       5.2720000       1.3242500     -0.57750000       344.39200       4.8892268     0.041148356
       141.99999       292.56037       98653.209       12782.815       4.8265000       2.4430000     -0.21175000       345.24300       3.0247227     0.036324008
       147.00001       292.54464       98645.209       12721.791       3.1262500       1.4917500      0.11425000       345.14000       2.9292137     0.036866554
       152.00002       292.68979       98627.329       12726.779       4.2500000      0.49000000      0.29500000       344.78900       2.6625747     0.035582425
       156.99999       292.79412       98626.733       12751.387       5.4577500       2.4310000      0.53425000       343.64700       4.6316494     0.037222717
       162.00001       293.11389       98641.482       12916.031       3.1682500       3.2250000     0.011750000       344.32600       2.7729040     0.035499566
       167.00002       293.17235       98649.197       12947.929       4.2020000       2.1447500      0.21150000       344.00000       3.0882129     0.035615856
       171.99999       293.08319       98665.358       12932.373       4.7445000       2.1055000      -1.4945000       343.80400       2.6729180     0.036897561
       177.00001       293.03445       98669.898       12921.076       4.3780000       2.7585000     0.060250000       344.11500       3.4192127     0.038464564
       182.00002       292.83562       98669.316       12818.271       3.5762500       1.5990000      0.52725010       345.74700       3.5960788     0.039321801
       186.99999       292.80624       98663.873       12832.910       2.3497500      0.44575000      0.63000010       345.97500       3.3282211     0.034817287
       192.00000       292.91894       98647.608       12930.438       2.8202500      0.21200000      0.12575000       345.82700       2.5800835     0.034432230
       197.00002       292.89675       98640.280       12969.071       4.5590000       1.8590000     -0.37000000       343.03900       2.8719465     0.031221234
       201.99999       292.87285       98627.329       13053.712       5.4120000       1.9280000     -0.41975000       343.42400       3.2212607     0.031555247
       207.00000       292.84093       98628.071       13076.098       4.8937500       1.3142500      0.24300000       343.82400       3.7416522     0.032540876
       213.00001       292.70134       98643.171       13030.932       2.8672500       1.5297500      0.89200000       344.31700       4.6544540     0.034008280
       218.00002       292.64925       98651.256       13001.615       3.8657500       2.3342500      0.29925000       344.04500       4.6456726     0.036374217
       223.00000       292.63673       98668.466       12952.130       1.8037500      0.64625000      0.96800010       345.26800       4.0027375     0.031008789
       228.00001       292.65444       98668.307       12936.977       3.2860000      -1.7517500      0.61725000       344.52100       3.7491998     0.032819245
       233.00002       292.64488       98657.424       12886.194       4.7792500      0.42900000     -0.15600000       343.97900       3.0948283     0.022999326
       238.00000       292.76633       98650.713       12950.693       3.3752500     -0.80325000      0.33775000       345.53500       2.8712073     0.024362288
       243.00001       293.02692       98633.823       13102.529       3.3367500      0.28700000       1.0735000       344.69900       3.3282834     0.028186442
       248.00002       293.16697       98630.347       13208.985       4.5862500     -0.27925000     -0.50600000       344.26800       4.3144020     0.028122245
       253.00000       293.41692       98631.707       13403.691       5.0722500      0.50200000       1.0905000       344.83000       5.3578575     0.034013291
       258.00001       293.37808       98638.289       13459.641       3.3652500       1.3510000      0.11850000       345.48200       4.6261786     0.039550587
       263.00002       293.15186       98654.140       13442.042       4.7492500       1.8812500     -0.28975000       343.45500       5.7462745     0.046637177
       267.99999       292.98584       98661.225       13414.783       3.5960000       1.0227500     -0.26200000       344.12400       3.2051917     0.032293319
       273.00001       292.63927       98673.982       13308.333       3.7482500       3.2257500     -0.72800000       343.96200       2.7666417     0.024947066
       278.00002       292.51145       98671.770       13265.826       3.2502500       2.0320000      0.71300010       346.41300       3.1865671     0.019312630
       282.99999       292.47235       98657.307       13231.302       3.0385000       3.0782500     -0.39700000       344.50600       2.3612699     0.022335131
       288.00001       292.47626       98649.455       13200.356       3.1092500       3.7427500     -0.33100000       344.74300       2.6750147     0.021199723
       293.00002       292.57398       98631.983       13191.304       3.7650000       5.3550000     -0.32075000       342.76000       3.5603550     0.029650616
       297.99999       292.65082       98632.128       13170.956       3.4885000       4.6657500     -0.51675000       342.57600       2.5820002     0.027391783
       304.00000       292.79036       98643.625       13133.041       3.4447500       3.8432500      0.22350000       344.00500       2.2188922     0.028798868
       309.00001       292.91260       98650.971       13122.349       1.2607500       2.9902500      0.39425000       344.47600       2.4952787     0.017999247
       313.99999       293.04912       98667.031       13114.892       2.3802500       2.3477500      0.24125000       343.94700       2.4417334     0.020427336
       319.00000       293.21637       98673.299       13180.183       2.9447500       2.8895000     -0.11050000       344.51700       2.9648998     0.019449021
       324.00001       293.32192       98672.943       13203.393       2.5027500       3.3145000      0.22100000       344.74700       2.3760335     0.031390987
       328.99999       293.37010       98662.748       13188.464       3.8997500       3.1255000     -0.29575000       344.65900       2.5747951     0.026569043
       334.00000       293.41197       98655.895       13225.693       2.8395000       3.6625000      0.36525000       344.87100       2.5064128     0.028053639
       339.00001       293.42920       98647.806       13276.248       2.1152500       1.9697500      0.17750000       345.49100       3.2828652     0.032949876
       344.00003       293.41939       98631.434       13316.056       3.1257500      0.86275010       1.2300000       346.60000       3.5001166     0.029411029
       349.00000       293.35448       98633.293       13358.615       5.4472500       3.3475000      0.35700000       343.60600       2.8634159     0.028141676
       354.00001       293.25573       98644.241       13463.705       2.3357500       2.0577500    -0.041500000       344.62700       3.3500688     0.028826763
       359.00002       293.17282       98660.253       13434.068       4.7537500       2.7197500     -0.31400000       344.42600       3.1733615     0.019273380
       364.00000       293.05354       98667.811       13381.242       4.6495000       3.4782500     -0.74875000       343.67800       2.7559835     0.026397690
       369.00001       292.92289       98668.832       13265.368       3.1810000       1.4607500      -1.4292500       344.07300       3.0064498     0.024032912
       374.00002       292.80471       98667.170       13171.562       3.1967500       3.6352500     -0.22775000       343.22900       2.2751325     0.024737111
       379.00000       292.67473       98657.208       13068.466       4.5827500       1.5832500      0.22225000       344.71300       2.2489736     0.022856843
       384.00001       292.50723       98650.215       12961.127       2.4865000       1.1455000      0.38625000       344.53600       3.2779391     0.028949612
       389.00002       292.32744       98643.223       12855.842       3.5540000       3.3382500     -0.17125000       343.85800       3.5216558     0.029960831
       394.99999       292.11353       98633.066       12738.916       3.6082500       2.2772500     -0.20000000       345.13500       2.7414729     0.032616975
       400.00000       291.91502       98630.459       12632.750       2.3252500       3.6762500     0.010250000       344.26400       2.3170094     0.020427508
       405.00002       291.89695       98633.963       12606.696       4.6000000       2.7632500    -0.030000000       344.08500       3.2372925     0.026382146
       409.99999       292.14922       98649.595       12687.023       4.7262500       1.2157500      0.77050010       344.55000       2.9282966     0.033334547
       415.00000       292.28030       98657.537       12729.547       4.3907500       2.1862500     -0.90425000       342.79100       3.0132887     0.024800617
       420.00002       292.50042       98671.718       12804.281       4.0160000       1.2645000     -0.20500000       343.34700       3.7242997     0.030486333
       424.99999       292.60190       98673.933       12863.233       3.0787500       2.3807500     -0.39900000       344.67400       3.4311546     0.028762431
       430.00000       292.54237       98661.929       12888.190       3.9712500       1.5702500     -0.18625000       345.37300       3.1266906     0.025670433
       435.00001       292.55228       98654.823       12935.680       4.4407500       1.4967500     -0.91125010       344.62500       4.8363941     0.040152338
       439.99999       292.57207       98635.683       13013.196       3.5192500       1.3680000     -0.26050000       344.95900       3.1127957     0.027776929
       445.00000       292.55043       98631.494       13064.856       6.0612500       3.5455000      0.30025000       344.44000       3.1336583     0.025652152
       450.00001       292.54944       98640.256       13135.664       5.8435000      0.89050010      0.36250000       344.94700       3.0711616     0.026952112
       454.99999       292.50573       98645.499       13155.358       5.3717500       2.3187500     -0.47275000       343.25800       4.4365369     0.033396264
       460.00000       292.32171       98660.824       13098.253       4.8367500       1.4555000      0.32575000       344.10100       3.1298185     0.028609048
       465.00001       292.26763       98668.331       13092.201       3.8472500       2.8672500     -0.27125000       343.76700       3.1019030     0.026825948
       470.00003       292.30174       98673.594       13095.324       3.1420000       2.2597500     -0.23075000       344.65100       2.7441314     0.026612336
       475.00000       292.29287       98672.115       13080.524       4.8632500       3.4757500     -0.88350000       343.35500       3.7170025     0.029760476
       480.00001       292.36256       98661.980       13111.973       4.2362500      0.97675010      0.15475000       344.62600       3.1120734     0.025773710
       486.00002       292.36545       98653.301       13084.912       2.9170000      0.60800000    -0.068000000       345.49500       4.1186958     0.034242895
       490.99999       292.28064       98636.907       12993.338       3.2622500      0.70400010     -0.16950000       345.48500       2.9362521     0.025564922
       496.00001       292.23045       98631.380       12932.167       5.1132500       1.8597500      0.13500000       345.82400       2.5947944     0.024697455
       501.00002       292.15329       98630.758       12828.861       4.8037500       1.8032500     -0.87525000       342.64400       3.4818957     0.025821401
       505.99999       292.13005       98635.163       12802.835       3.2512500       2.9802500     -0.79750000       343.30400       3.5660937     0.026923199
       511.00000       292.11749       98651.106       12815.871       5.4040000       2.1607500      -1.5407500       343.68100       4.1108436     0.034739391
       516.00002       292.14873       98658.591       12850.146       5.7347500       1.7230000      0.30900000       344.11800       3.7329039     0.029143918
       520.99999       292.28330       98668.714       12974.484       2.6512500       1.5645000     -0.49325000       345.23500       3.7611345     0.025709652
       526.00000       292.32566       98673.489       13032.651       3.7542500     0.096500000      0.59650000       345.87400       3.7691157     0.028202336
       531.00002       292.35133       98671.655       13057.439       2.0690000      0.48375000      0.22325000       345.58500       3.8533829     0.030429365
       535.99999       292.36404       98670.332       13112.509       2.2232500      0.39825000     0.068250000       345.48100       3.6364193     0.025425880
       541.00000       292.30476       98670.171       13164.319       3.7390000       1.4845000     -0.89625010       343.76600       3.2919108     0.026243899
       546.00002       292.28836       98664.028       13206.947       3.5987500       2.7802500     -0.57950000       344.11400       3.1293564     0.026034532
       550.99999       292.32555       98645.433       13308.589       3.6222500       1.9645000     -0.75225000       343.76100       3.2891380     0.028908967
       556.00000       292.29788       98642.011       13316.798       3.4370000       4.6712500     -0.37775000       343.98800       2.7915538     0.027851507
       561.00001       292.21094       98641.743       13229.008       4.2522500       1.4527500     -0.26925000       343.86200       2.9601453     0.023609994
       565.99999       292.18474       98644.149       13199.739       4.3335000       2.1210000     -0.32150000       343.35300       2.5500934     0.020665242
       571.00000       292.16039       98663.871       13164.382       2.9677500       1.8965000      0.16775000       343.81600       2.9334696     0.026535377
       577.00001       292.13038       98669.854       13102.782       3.4725000       2.3825000     0.038750000       343.06300       2.3088379     0.025810995
       582.00002       292.14583       98668.344       13066.619       3.2370000       2.4030000     -0.27725000       343.38400       2.5405361     0.023634931
       586.99999       292.15607       98664.540       13035.096       1.6627500       1.9852500     0.013750000       344.24300       2.9588550     0.024072072
       592.00001       292.15493       98653.123       12978.106       2.5677500      0.62750010      0.73625000       344.82400       3.8718111     0.035760877
       597.00002       292.14512       98646.168       12933.922       2.6935000       1.6467500     -0.54650000       343.56900       2.2377845     0.024047380
       601.99999       292.15711       98635.133       12910.725       2.3380000       1.5397500     0.059000000       343.98900       2.9510469     0.029774052
       607.00001       292.15089       98632.080       12898.664       1.7800000       1.2860000     -0.19375000       343.87100       3.7139945     0.026931431
       612.00002       292.11242       98630.892       12876.191       4.3935000       1.1507500     -0.36650000       344.25800       4.0639350     0.024732077
       616.99999       292.08245       98636.444       12869.908       3.9992500       1.7960000     -0.59950000       343.87600       3.7925304     0.028016702
       622.00001       292.04716       98652.730       12888.428       4.5090000       2.7882500     -0.16050000       343.38400       2.5563035     0.023860453
       627.00002       292.04365       98660.152       12918.859       5.2760000       1.7727500     -0.68150000       343.25900       2.6631691     0.025448526
       631.99999       292.04315       98673.439       12956.402       3.7812500       2.3910000     -0.18750000       343.28100       3.2321966     0.022858998
       637.00000       292.04940       98672.728       12988.401       5.0552500       2.9780000    -0.044500000       343.02600       3.0277925     0.028191532
       642.00002       292.09952       98658.777       13043.117       3.3915000       2.4607500     -0.38400000       343.43900       3.3085978     0.020604944
       646.99999       292.11299       98651.216       13087.543       3.6060000       4.0607500      0.18025000       343.47000       3.0112207     0.027264312
       652.00000       292.11165       98635.212       13132.701       2.3015000       2.2475000      0.18100000       344.11400       3.5125916     0.019962303
       657.00002       292.09581       98630.723       13142.242       2.7472500       1.4297500     -0.55650000       343.83100       2.7844081     0.019699675
       661.99999       292.05928       98632.045       13143.103       2.1027500       1.7455000     -0.15150000       343.61400       2.5303852     0.023072661
       668.00000       292.03523       98637.224       13133.825       1.5335000       3.9177500     -0.23675000       343.42200       2.8879580     0.024511232
       673.00001       292.00669       98648.906       13086.136       3.2270000       4.3662500     -0.24425000       343.33400       2.2795249     0.020473168
       678.00002       291.97666       98655.958       13053.496       1.4920000       2.4522500      0.98025010       344.02700       2.4678353     0.029912979
       683.00000       291.95333       98666.487       13031.770       4.8450000       2.6632500     -0.98950000       342.74600       2.9873509     0.025778899
       688.00001       291.93334       98668.921       13002.074       3.2750000       1.2580000      0.67425000       343.89500       3.3022522     0.024810982
       693.00002       291.89726       98667.742       12950.002       3.4375000       2.9782500      0.12850000       342.89600       2.9638638     0.020170243
       698.00000       291.88622       98663.120       12925.957       3.0830000       3.3132500    0.0032500000       343.52900       2.9409633     0.023733778
       703.00001       291.89078       98652.027       12901.184       2.8750000       4.2550000      0.11850000       343.45100       3.8918601     0.024340901
       708.00002       291.90986       98645.039       12925.342       2.2817500       2.5322500     -0.43675000       343.41500       2.9802239     0.025262182
       713.00000       291.94644       98632.512       12979.983       2.5632500       3.6802500     -0.32125000       343.51900       2.4126456     0.025622797
       718.00001       291.96664       98633.956       13029.108       3.4335000       3.7057500     -0.67825000       343.28000       2.8169100     0.026505893
       723.00002       292.00371       98643.003       13118.539       2.2852500       1.9335000     -0.29100000       343.71500       2.4160985     0.027190882
       727.99999       292.01520       98649.674       13176.774       2.5995000       3.4955000    -0.039000000       343.10700       2.8867937     0.020862508
       733.00001       292.00033       98666.027       13210.869       3.0152500       3.6762500     -0.50500000       343.16700       3.0060062     0.028032441
       738.00002       292.00044       98671.424       13268.136       2.7857500       3.1100000      0.26450000       343.79200       3.3569728     0.026832259
       742.99999       291.99089       98671.449       13344.078       3.8257500       2.5260000      0.18950000       343.25000       2.5337870     0.028709267
       748.00001       292.00931       98670.705       13386.968       3.2770000       3.0505000     -0.17600000       342.74700       2.8417660     0.020123092
       754.00001       292.05618       98667.451       13440.781       1.3150000       2.1850000      0.70200000       343.86300       2.6331071     0.028655754
       758.99999       292.05510       98659.007       13434.107       2.3265000       1.4250000     0.027750000       343.57100       2.7462146     0.025830111
       764.00000       292.06228       98644.690       13393.117       1.3237500       1.8162500   -0.0067500000       343.86400       2.8232332     0.029390667
       769.00001       291.99945       98630.261       13316.515       1.5842500       2.6795000      0.56200000       343.57300       2.6423287     0.024622767
       773.99999       291.94916       98626.320       13254.179       3.7760000       1.8007500      0.43675000       343.56400       2.5632995     0.025858056
       779.00000       291.88442       98637.953       13175.114       3.9685000       4.2332500     0.075750000       343.37700       2.3078871     0.032587284
       784.00001       291.84331       98644.842       13117.391       4.5560000       4.1612500      0.44800000       343.19300       3.0730366     0.020455652
       789.00003       291.81444       98652.981       13072.599       3.0802500       3.6470000     -0.13575000       343.60300       3.2958066     0.024533317
       794.00000       291.79429       98667.115       13043.414       3.1975000       4.9022500     -0.10000000       343.20400       2.6391540     0.030345623
       799.00001       291.78583       98671.717       13015.205       3.2370000       3.4627500      0.21675000       343.43200       2.4910850     0.024917741
       804.00002       291.80003       98672.831       12995.458       3.9935000       1.7782500      0.82600000       343.38800       2.5377854     0.022218863
       809.00000       291.81499       98662.508       12989.275       4.4675000       3.9065000     0.021500000       343.26100       2.7701385     0.033562876
       814.00001       291.80647       98655.567       12996.151       4.2372500       3.9220000     0.060500000       342.89100       2.8628374     0.036842738
       819.00002       291.76984       98641.608       13039.943       3.9060000       4.3930000     -0.22950000       343.12500       3.1022036     0.027207186
       824.00000       291.75005       98633.327       13066.968       1.9445000       4.0305000     -0.41750000       343.35600       2.8182154     0.023198996
       829.00001       291.69991       98627.462       13078.999       3.6602500       2.6227500     -0.67575000       343.13400       2.5642890     0.023909920
       834.00002       291.68733       98628.015       13109.593       2.5575000       2.2087500      0.31800000       343.72200       3.2140220     0.027064278
       839.00000       291.69934       98633.498       13146.305       2.8110000       2.5395000      0.33600000       343.70600       3.1385342     0.020533665
       845.00000       291.75388       98646.238       13191.251       2.7330000       5.5937500      -1.0440000       342.99700       2.3219327     0.027240872
       850.00002       291.78957       98660.622       13247.078       3.5142500       4.6072500    -0.056750000       343.27200       3.0830676     0.039673666
       854.99999       291.80845       98668.312       13281.897       2.6860000       3.4022500     -0.11525000       343.24400       3.1738630     0.028676418
       860.00000       291.77157       98673.503       13280.344       4.2677500       2.9940000      0.76925000       343.46800       3.0047476     0.034680305
       865.00002       291.79362       98672.094       13304.755       4.9420000       3.4357500    0.0072500000       343.51300       2.8011836     0.032123191
       869.99999       291.86839       98661.577       13351.339       2.1647500       3.2932500     -0.28625000       343.45500       2.5968720     0.029911011
       875.00000       291.90824       98654.536       13374.325       3.6630000       2.6267500     -0.29600000       343.22900       2.7980943     0.035767535
       880.00001       291.98137       98638.497       13410.280       5.3962500       2.7622500       1.5740000       343.25100       2.5703628     0.023378355
       884.99999       292.01875       98632.089       13420.579       4.1215000       4.3667500      -1.4825000       343.39400       3.2711854     0.034297323
       890.00000       291.99962       98631.869       13391.608       1.9747500       4.0532500       1.2685000       343.65500       3.0159686     0.035627393
       895.00001       291.99948       98634.299       13372.609       4.1285000       3.2447500      0.27900000       343.24000       2.5872832     0.042316481
       899.99999       291.98570       98646.217       13327.906       3.4922500       4.1680000     -0.49700000       343.45900       2.4940875     0.041992508
       905.00000       291.99676       98652.165       13318.693       4.7057500       5.5460000     -0.40225000       343.12000       2.7447660     0.040570288
       910.00001       292.03423       98657.080       13340.969       4.0315000       2.6102500     -0.18925000       343.10500       2.7810365     0.025535217
       914.99999       292.05398       98661.940       13346.029       4.0077500       2.0885000     -0.18325000       343.28200       2.7994858     0.032756676
       920.00000       292.07579       98668.007       13365.875       3.5537500       2.6932500     -0.13575000       343.79300       2.9835040     0.025760484
       925.00001       292.10542       98666.684       13381.563       3.7915000       6.4642500      -1.2690000       342.74700       2.6204833     0.027576131
       930.00003       292.14776       98660.868       13400.042       3.8577500       5.6692500     0.089250010       343.34200       3.2504698     0.027823446
       935.99999       292.15669       98654.293       13385.811       3.7422500       3.3760000      0.54500000       343.55000       2.4658470     0.028434426
       941.00001       292.15701       98638.293       13356.606       2.1347500       3.7302500      0.34750000       343.59000       2.8596737     0.032865869
       946.00002       292.15357       98631.431       13337.947       3.2770000       5.6995000     -0.44425000       343.15400       2.3753169     0.030380812
       950.99999       292.11753       98626.817       13296.182       2.4960000       3.1880000     -0.84500000       343.25900       2.2284701     0.029179322
       956.00000       292.08733       98629.191       13262.956       3.3852500       3.0610000      0.70875000       343.08200       1.9848961     0.040226714
       961.00002       292.07482       98640.589       13253.273       1.9137500       2.4550000    -0.024250000       343.56900       2.3643413     0.031283238
       965.99999       292.04127       98647.954       13227.263       2.5365000       2.4655000      0.31500000       343.33200       2.9138090     0.033535324
       971.00000       291.94136       98662.606       13165.235      0.84975000       4.3495000      0.17975000       343.50700       2.7915547     0.034353741
       976.00002       291.93339       98669.437       13146.443       2.4027500       4.4330000     -0.26700000       343.03700       2.4048455     0.033183243
       980.99999       291.96835       98671.051       13150.054      0.76600000       3.6660000      0.59550010       343.54600       2.5560708     0.032177496
       986.00000       292.00583       98671.306       13152.782       1.6737500       3.7715000      -2.0677500       343.17300       2.2435936     0.034481593
       991.00002       292.10364       98670.241       13143.454       2.1207500       3.2352500      -1.3652500       343.31000       2.1765508     0.031946502
       995.99999       292.18389       98664.117       13200.449       3.1077500       4.1110000      0.54575000       343.30600       2.2524426     0.035147309
       1001.0000       292.28458       98649.283       13326.640       2.2335000       4.7822500      0.28550000       343.29000       2.5945197     0.037899962
       1006.0000       292.32651       98641.684       13393.590       4.2470000       3.3782500     -0.49800000       343.04000       2.6728469     0.044893153
       1011.0000       292.36523       98627.925       13491.567       2.7145000       3.5877500      0.54350000       343.23500       3.2755622     0.042960721
       1016.0000       292.36443       98627.129       13562.558       1.7612500       4.6585000     -0.53675000       343.33500       3.0909411     0.032900935
       1021.0000       292.28114       98639.970       13584.773       3.2392500       1.6832500     -0.49500000       343.18300       2.5021140     0.035549050
       1027.0000       292.22075       98648.979       13595.359      0.80400000       2.7765000     -0.10125000       343.71600       2.1016456     0.041721902
       1032.0000       292.14793       98664.097       13599.413       1.8010000       1.2787500      0.63550000       343.78300       2.1043320     0.040092697
       1037.0000       292.13007       98670.308       13610.424       2.5272500       3.8900000      0.98150000       343.51300       2.3484140     0.033871621
       1042.0000       292.15464       98670.180       13604.232       1.6085000       3.3140000     -0.11100000       343.70100       2.7590239     0.039744737
       1047.0000       292.14470       98671.576       13577.586       2.4335000      0.92450000      0.50900000       343.54700       2.8869089     0.025626976
       1052.0000       292.16797       98673.658       13574.012       2.7430000       3.2655000     -0.19475000       343.49300       2.3780533     0.033294391
       1057.0000       292.14541       98668.813       13526.117       2.5500000       2.7957500       1.3197500       343.29100       3.2116504     0.027392449
       1062.0000       292.05942       98659.252       13405.727       3.7082500       2.6982500     -0.40800000       343.33400       2.3844174     0.027295650
       1067.0000       292.02569       98651.596       13337.171       4.0565000       3.6212500     -0.25075000       342.77600       2.3886387     0.033096753
       1072.0000       292.01246       98635.343       13275.720       3.3560000       2.1027500    -0.046500000       343.18700       3.0596971     0.036902922
       1077.0000       291.98242       98630.862       13231.002       3.2895000       3.9490000     -0.44875000       343.32000       3.7829062     0.033415378
       1082.0000       291.94666       98632.538       13189.960       2.4100000       3.1110000      0.89175000       343.62500       2.6989047     0.037716576
       1087.0000       291.94286       98636.446       13186.465       3.2310000       2.6282500      0.25125000       343.22600       2.5377407     0.026138555
       1092.0000       291.95397       98647.366       13226.271       2.1677500       2.0637500      0.79350010       343.59200       2.7724878     0.027850116
       1097.0000       291.94419       98654.240       13235.057       2.3407500       3.3805000     -0.78525000       343.07500       2.6493030     0.026382591
       1102.0000       291.96785       98664.290       13254.849       3.8625000       2.8947500     -0.36475000       343.32100       2.7445905     0.041225220
       1107.0000       291.94531       98668.987       13272.666       4.9770000       4.9695000     -0.20925000       342.99500       2.1977572     0.030336430
       1112.0000       291.87152       98671.449       13284.151       3.0590000       3.3620000     0.083750000       342.80200       2.2147327     0.032641702
       1118.0000       291.81115       98670.843       13273.313       5.0157500       3.7095000     -0.64675000       342.96800       2.6349566     0.029919551
       1123.0000       291.75998       98664.922       13274.963       3.9142500       4.4847500     -0.64775000       343.01100       2.7468235     0.034687134
       1128.0000       291.70963       98664.833       13245.952       2.8960000       3.3887500      0.20725000       343.35800       2.7493129     0.032784586
       1133.0000       291.65012       98664.691       13166.091       4.3137500       2.9002500     -0.28450000       342.89300       2.5546147     0.030171828
       1138.0000       291.61884       98665.590       13137.326       4.4317500       2.9610000     -0.23600000       342.74200       2.4828429     0.027756790
       1143.0000       291.60535       98674.181       13136.080       3.4665000       3.6950000      -1.2740000       342.90500       3.2641857     0.030431016
       1148.0000       291.57537       98667.847       13095.563       2.5150000       4.5847500      -1.0945000       342.97100       4.5926410     0.030714623
       1153.0000       291.55470       98649.230       13053.595       2.4700000       4.2185000     -0.42675000       343.04100       2.4319954     0.024566745
       1158.0000       291.53451       98646.780       13011.042       3.9597500       2.5687500     -0.97600010       342.99100       2.1885438     0.031542802
       1163.0000       291.48923       98642.225       12923.711       5.1130000       4.3862500     -0.13400000       343.08000       2.5809555     0.032071312
       1168.0000       291.49719       98645.650       12915.217       4.2355000       2.8692500     -0.50700000       343.17300       2.0922542     0.035352460
       1173.0000       291.54727       98666.205       12951.770       3.3232500       4.3057500     -0.70050000       342.92300       2.4988146     0.031939606
       1178.0000       291.56738       98671.638       12979.370       3.5950000       2.1605000     -0.45000000       342.99000       2.5675893     0.029882421
       1183.0000       291.61152       98671.506       13042.687       1.9777500       4.1840000    -0.071500000       343.19400       2.1253010     0.025474064
       1188.0000       291.60373       98670.735       13076.688       5.1032500       4.2227500      -1.3892500       342.82800       2.9838132     0.033793448
       1193.0000       291.54476       98668.556       13092.957       3.3177500       4.4542500      0.16775000       343.19300       3.4470574     0.038932648
       1198.0000       291.54327       98661.059       13134.517       4.4577500       3.4927500     -0.15875000       343.19800       2.6779084     0.031218328
       1203.0000       291.54234       98646.585       13193.259       4.7440000       2.8312500     -0.23825000       343.37700       3.3982664     0.027228601
       1209.0000       291.55481       98638.186       13225.896       2.5830000       2.7282500      0.38600000       343.43600       2.3966221     0.031509879
       1214.0000       291.60570       98626.755       13264.339       2.0780000       3.2352500      0.30325000       343.06800       2.7084070     0.035940622
       1219.0000       291.59999       98639.499       13225.033       2.3867500       4.5882500      0.57600000       343.34600       2.7754203     0.037107520
       1224.0000       291.59988       98645.587       13195.777       1.3540000       3.4250000     -0.95750000       343.38200       2.4498509     0.026833632
       1229.0000       291.61466       98654.317       13157.079       2.5210000       3.0282500      -1.1295000       343.05100       2.3974720     0.031918255
       1234.0000       291.60572       98661.469       13114.973       2.2617500       3.0187500       1.1537500       343.29800       3.0525211     0.028383334
       1239.0000       291.58444       98666.150       13071.145       4.5462500       3.0702500      0.23725000       343.03700       2.7133143     0.025823608
       1244.0000       291.55046       98666.016       13025.974       2.8762500       3.5852500     -0.76700000       342.83500       2.4034831     0.025552715
       1249.0000       291.53009       98665.946       12994.312       4.2350000       4.3712500      0.21775000       343.13300       3.2120227     0.035536382
       1254.0000       291.49430       98665.878       12957.574       4.3502500       4.2050000    -0.019500000       343.21800       2.5173878     0.037178005
       1259.0000       291.51471       98666.051       12959.739       3.2715000       3.0917500     -0.10275000       343.30300       2.1758157     0.031489280
       1264.0000       291.50607       98661.258       12962.473       1.5355000       2.3235000      0.23100000       343.08100       2.7601806     0.029932384
       1269.0000       291.46985       98649.771       12979.908       2.0555000       1.9945000      0.82250010       343.47800       2.7703336     0.034484187
       1274.0000       291.45009       98644.723       12992.498       1.7660000       2.7960000    -0.076000010       343.29900       2.4370023     0.026887221
       1279.0000       291.38532       98634.779       12984.845       1.8717500       1.3032500     -0.10525000       343.59700       2.5355663     0.024008823
       1284.0000       291.38171       98632.149       13009.549       2.5520000       2.9622500      0.11250000       343.16100       3.9178447     0.027322923
       1289.0000       291.41501       98635.658       13050.639       2.4990000       3.1822500     0.092250000       343.23200       2.4808476     0.025028686
       1294.0000       291.50450       98650.097       13108.909       2.5672500       2.5717500     -0.14825000       343.19600       3.2144979     0.024646680
       1300.0000       291.55986       98661.619       13181.739       2.7077500       1.8710000      0.58950000       343.45600       2.1470937     0.033841850
       1305.0000       291.56651       98667.412       13209.199       3.7327500       3.2482500     -0.28375000       343.05700       2.1006369     0.023268667
       1310.0000       291.46086       98669.268       13174.931       1.2755000       4.6740000     -0.62050000       343.04000       2.7368554     0.023920226
       1315.0000       291.43259       98671.169       13171.659       2.2857500       2.7362500     -0.35825000       343.19200       2.3128270     0.024194926
       1320.0000       291.44375       98671.822       13181.386       2.2130000       3.4447500      0.41325000       343.36800       2.8034538     0.025223120
       1325.0000       291.44494       98670.745       13174.636       1.4312500       2.7850000      -1.4510000       343.11600       2.2227930     0.023771556
       1330.0000       291.46128       98671.417       13157.355       2.8115000       1.6980000      0.18100000       343.35400       2.1928867     0.024432848
       1335.0000       291.50276       98666.010       13161.462      0.68925010       1.6287500      0.10575000       343.49900       2.0531223     0.023714336
       1340.0000       291.56826       98651.063       13168.312       1.2695000       3.6925000     -0.20850000       343.22900       2.3822791     0.024976401
       1345.0000       291.60845       98643.148       13170.298       1.1090000       1.8992500     0.025500000       343.60500       2.5962200     0.024493859
       1350.0000       291.68129       98628.815       13192.207       2.3185000       2.7552500      0.14125000       343.11100       2.3768461     0.024911496
       1355.0000       291.71921       98626.454       13207.919       3.9982500       2.5667500     -0.89400010       343.32900       2.6280921     0.034421890
       1360.0000       291.70013       98639.283       13200.929       3.4920000       4.2620000     -0.74650000       342.97700       2.8205102     0.027075137
       1365.0000       291.70013       98646.432       13209.698       2.8060000       3.6792500    -0.073750000       343.39800       2.5560933     0.035270124
       1370.0000       291.70015       98660.674       13242.197       1.9610000       3.7532500      0.35625000       342.86800       2.1847849     0.021219333
       1375.0000       291.70026       98668.240       13258.384       2.1900000       2.2112500      0.14175000       343.41700       2.0676688     0.023853848
       1380.0000       291.68521       98669.286       13261.105       4.6430000       3.4930000      0.46725000       342.93800       2.2133254     0.023796138
       1386.0000       291.70035       98671.367       13279.510       4.2252500       3.6140000      -1.0695000       343.05900       2.6388957     0.024117166
       1391.0000       291.73814       98671.661       13300.895       3.5187500       3.3607500     -0.41675000       342.82400       2.2821159     0.023143430
       1396.0000       291.75827       98670.348       13310.526       3.0657500       3.2362500      0.58500000       343.18600       2.3261216     0.023831537
       1401.0000       291.79516       98668.987       13322.267       4.6305000       4.7747500     -0.43400000       342.84000       2.3895451     0.024701294
       1406.0000       291.81170       98664.267       13331.741       4.7230000       2.6100000      0.29500000       343.27700       2.1580096     0.023661121
       1411.0000       291.82595       98654.530       13347.982       2.8910000       2.9062500      0.35400000       342.96100       2.5527820     0.026354053
       1416.0000       291.79859       98647.597       13326.629       2.1015000       4.2140000     -0.73000000       342.59700       2.4197091     0.024294491
       1421.0000       291.73953       98636.393       13286.116       1.4932500       2.7140000     0.095500010       343.33000       2.6256665     0.031628204
       1426.0000       291.68555       98632.644       13247.868       3.1017500       3.5320000     -0.28425000       342.84700       2.4977011     0.033632660
       1431.0000       291.57217       98632.179       13169.882       3.5590000       2.2477500    -0.083250000       343.00400       3.0660709     0.025251227
       1436.0000       291.51922       98635.362       13117.384       1.6177500       2.7955000     -0.33425000       343.12200       2.7520114     0.026999677
       1441.0000       291.51734       98646.104       13083.862       4.2072500       1.9475000      0.49175000       343.02400       2.3329273     0.025751620
       1446.0000       291.48730       98653.032       13049.914       3.2105000       3.5072500     -0.25350000       343.04900       2.7310600     0.026499291
       1451.0000       291.44919       98660.659       12988.033       4.2147500       2.1907500     -0.47375000       343.22600       2.8653562     0.024408278
       1456.0000       291.44326       98668.640       12988.777       3.7647500       1.6217500     -0.19125000       342.86600       2.4734644     0.025618726
       1461.0000       291.44302       98680.025       13042.636       4.2742500       1.8230000     -0.91775010       342.72600       2.5168582     0.023435232
       1466.0000       291.44657       98682.923       13072.604       4.0412500       2.6317500      -1.0717500       342.68800       3.0110598     0.035335417
       1471.0000       291.46825       98683.215       13120.389       3.5465000       2.0242500      0.40550000       343.09200       2.4948081     0.032508578
       1477.0000       291.52253       98680.198       13195.166       2.4572500      0.98925010      0.37500000       343.56500       2.5216325     0.024604527
       1482.0000       291.57294       98668.696       13247.552       2.1077500       1.5365000      0.71125000       343.44200       3.0656008     0.026217530
       1487.0000       291.62957       98660.696       13315.580       2.2377500       3.0822500     -0.32025000       343.29200       2.8220533     0.027285204
       1492.0000       291.74217       98652.806       13437.744       3.3017500       1.1637500     -0.83975010       342.96800       2.8673252     0.026202782
       1497.0000       291.79053       98645.802       13502.421       4.4155000       3.6102500     -0.44675000       343.04500       3.2270601     0.028034853
       1502.0000       291.81048       98635.040       13550.591       3.6567500       2.5807500      0.38975000       343.26100       2.9716384     0.024211237
       1507.0000       291.80793       98631.928       13560.238       2.5747500       3.2400000     0.010250000       343.28700       3.3531727     0.023782903
       1512.0000       291.76994       98632.093       13538.177       5.1972500       4.3600000     -0.49250000       342.84700       2.5517899     0.026096536
       1517.0000       291.73311       98636.055       13496.547       2.8942500       1.8115000     -0.18575000       343.23000       2.6691326     0.022708362
       1522.0000       291.63760       98647.596       13381.890       3.5570000       2.8342500     -0.45550000       343.15000       2.3195054     0.023679780
       1527.0000       291.63680       98654.664       13352.942       2.4460000       1.6982500     -0.37450000       343.30300       2.5942754     0.025292245
       1532.0000       291.69712       98662.247       13365.899       1.1120000       1.3520000      0.39875000       343.60600       3.4901827     0.038877902
       1537.0000       291.70718       98670.252       13336.302       4.1397500       1.0940000     -0.43250000       343.18500       2.9555992     0.030314214
       1542.0000       291.75705       98680.806       13328.503       2.9812500       2.6947500     -0.52250000       343.09100       2.9219202     0.027302544
       1547.0000       291.76443       98682.850       13307.683       2.8312500       1.5495000      0.30375000       343.01700       3.2842079     0.025579914
       1552.0000       291.71229       98685.199       13236.584       4.5317500       2.7755000     -0.39150000       343.30800       3.2057698     0.026851205
       1557.0000       291.68260       98679.184       13203.830       2.6350000       1.9290000     -0.12575000       343.51200       2.4256268     0.024994385
       1562.0000       291.65937       98658.271       13193.722       3.8400000       2.8390000     -0.60725000       343.26600       2.4407737     0.032075143
       1568.0000       291.63533       98648.118       13203.813       5.0220000       2.9532500     -0.78400000       342.85700       2.9774987     0.027096153
       1573.0000       291.59735       98639.524       13219.681       3.5622500       2.4195000     -0.93425010       343.39700       3.1541115     0.026183170
       1578.0000       291.58601       98636.111       13239.454       5.0232500       4.9765000       1.0452500       343.27600       2.7193163     0.025281747
       1583.0000       291.60004       98640.141       13290.958       3.5450000       3.1822500      0.20825000       343.35900       2.3695443     0.029946185
       1588.0000       291.60004       98640.082       13320.335       4.7565000       2.3112500     -0.25775000       342.90000       2.8188592     0.025306112
       1593.0000       291.59977       98638.493       13330.351       2.9895000       2.7685000      0.23650000       343.36000       2.0653364     0.024171745
       1598.0000       291.59966       98642.220       13357.701      0.69700000       2.6387500    -0.058250000       343.81400       2.3716957     0.025072243
       1603.0000       291.60008       98648.344       13404.407       3.8552500       3.0715000      0.19025000       343.41000       2.6022463     0.034488333
       1608.0000       291.60002       98654.286       13420.035       3.5240000       3.0032500     -0.55175000       343.47300       2.1163144     0.023200567
       1613.0000       291.59133       98665.376       13418.418       2.1965000       4.6110000      -1.2737500       342.91200       2.4841625     0.030938700
       1618.0000       291.61029       98669.649       13437.078       3.7592500       2.7510000     -0.73775010       343.09200       2.1298353     0.027337760
       1623.0000       291.64670       98670.575       13458.371       3.8377500       2.5712500       1.2620000       343.06800       2.2982203     0.024312193
       1628.0000       291.66675       98671.707       13456.269       3.4755000       4.0102500    -0.039500000       342.97900       3.2174106     0.024201491
       1633.0000       291.70341       98670.074       13458.716       3.7152500       3.5642500    0.0012500000       343.26700       2.3298138     0.023156926
       1638.0000       291.71440       98669.933       13450.462       3.4047500       5.2747500     -0.33225000       342.98800       2.3196978     0.020581763
       1643.0000       291.70046       98673.126       13407.373       4.5357500       3.8847500     -0.48750000       343.02100       1.9196401     0.022111424
       1648.0000       291.70058       98667.665       13394.081     0.068500000       1.4762500      0.78900000       343.08100       2.5771705     0.028222313
       1653.0000       291.70018       98657.889       13401.857       1.1637500       4.0480000     -0.61925010       343.27500       2.7922925     0.029347253
       1659.0000       291.70010       98648.219       13392.325      0.18425000       4.7837500     -0.25850000       343.12100       2.2948545     0.025672341
       1664.0000       291.69965       98633.454       13376.709      0.47900000       4.5252500      0.73950000       343.04400       2.0978725     0.021933447
       1669.0000       291.68522       98627.248       13383.387       1.5445000       2.0172500      0.15200000       343.06400       2.4265428     0.030485108
       1674.0000       291.69378       98627.605       13380.825      0.16250000       3.8630000       1.2180000       342.94900       2.1712796     0.023287921
       1679.0000       291.74540       98639.390       13371.569      0.24525000       4.7332500      0.56475000       343.01600       1.9907662     0.024483964
       1684.0000       291.75646       98645.340       13374.377       4.1535000       3.6920000    -0.079500000       343.06100       2.8736254     0.025891903
       1689.0000       291.75512       98651.276       13380.391      0.60000000       3.4547500      -1.7687500       342.89800       2.4229783     0.024997981
       1694.0000       291.77024       98661.604       13383.679       2.0242500       2.5445000      0.26175000       343.37000       2.3884091     0.026473568
       1699.0000       291.71532       98666.344       13387.656       1.7677500       2.4452500      0.26675000       343.52600       2.4527212     0.025953051
       1704.0000       291.59975       98665.271       13407.630       2.9062500       4.8390000     -0.99400000       342.96800       3.1184819     0.028150554
       1709.0000       291.49898       98668.759       13388.664       4.3900000       4.8330000      -1.4310000       342.69900       1.9740440     0.026580804
       1714.0000       291.43585       98670.902       13364.487       2.9330000       2.5855000      0.43125000       343.20700       2.3279928     0.017320404
       1719.0000       291.41477       98676.249       13324.372       4.7670000       5.8732500     -0.24200000       342.95100       2.1109011     0.022228267
       1724.0000       291.39390       98672.678       13286.727       2.7497500       4.5255000     -0.60150000       342.91000       2.0742817     0.021209869
       1729.0000       291.37020       98658.325       13225.064       1.3365000       4.3927500     0.057500000       342.70000       2.1324616     0.034348887
       1734.0000       291.38763       98650.420       13193.781       4.0125000       3.8832500     -0.68975000       342.94500       2.3265263     0.028974482
       1739.0000       291.42969       98642.528       13177.665       2.9345000       3.4737500      0.81550000       343.02700       2.4509683     0.024881591
       1744.0000       291.49849       98625.841       13171.872       2.1385000       3.4245000     -0.36925000       343.10800       2.2713675     0.025986066
       1750.0000       291.56546       98644.490       13176.859       3.6055000       2.1155000     -0.56400000       343.16000       2.1180089     0.024020868
       1755.0000       291.61475       98647.030       13204.644       3.1430000       4.6975000      0.24050000       342.65600       2.1084029     0.024033499
       1760.0000       291.63437       98645.422       13237.499       3.8845000       3.4587500      0.22325000       343.02100       2.0206400     0.025418193
       1765.0000       291.65459       98646.131       13294.106       1.0927500       2.7455000     -0.52350000       343.10600       2.0191309     0.032800705
       1770.0000       291.70482       98633.758       13424.992       3.1717500       3.4907500     -0.22900000       343.13000       1.9450860     0.024369398
       1775.0000       291.71228       98632.405       13491.177       2.4962500       3.1947500     -0.30125000       343.41100       1.8329222     0.030734910
       1780.0000       291.66675       98644.489       13538.322       2.4825000       4.7607500     -0.24300000       343.09200       1.8680059     0.025419873
       1785.0000       291.64676       98651.473       13573.115       2.5615000       2.8847500       1.0482500       343.20300       1.8471263     0.027936514
       1790.0000       291.63824       98661.675       13582.138       2.2942500       3.1367500       1.2635000       343.05200       1.8586772     0.024572059
       1795.0000       291.59672       98667.448       13559.971       3.4415000       4.7820000     -0.53350000       342.37900       1.9020794     0.025881247
       1800.0000       291.51663       98669.351       13497.250       2.6650000       2.4660000     0.051250000       342.81100       1.8341485     0.040973919
       1805.0000       291.48737       98671.226       13461.846       2.0775000       2.7745000      0.25525000       343.22600       1.8509671     0.024130789
       1810.0000       291.46762       98670.145       13414.991       1.8482500       2.5727500   -0.0087500000       343.47400       1.7847085     0.028039340
       1815.0000       291.43939       98670.107       13359.650       2.9530000       4.8065000     -0.61825000       342.85000       1.8269296     0.026026943
       1820.0000       291.44210       98671.860       13299.874       2.4335000       2.6912500      0.29575000       343.30200       1.8155963     0.026055168
       1825.0000       291.45202       98670.814       13274.682       2.0727500       3.1440000      0.61175000       343.44800       1.8259708     0.030160012
       1830.0000       291.42822       98669.889       13224.254       2.0242500       2.7580000     -0.46100000       343.06000       1.8347312     0.021632512
       1835.0000       291.44077       98665.615       13224.003       2.7240000       3.8262500     -0.12825000       343.09600       1.8275883     0.029019316
       1841.0000       291.53263       98654.493       13326.168       1.9665000       3.3827500      0.18150000       343.23300       1.8141442     0.028010718
       1846.0000       291.56928       98647.442       13370.117       2.4425000       3.5190000     -0.74350010       342.70800       1.8334484     0.021640641
       1851.0000       291.59518       98636.132       13401.299       3.3297500       4.2710000      0.30425000       342.84700       1.8323951     0.023287839
       1856.0000       291.61156       98632.197       13445.555       5.4525000       5.4362500      0.76125000       342.81700       1.8414093     0.024415815
       1861.0000       291.59959       98634.648       13490.410       2.8167500       2.1732500      0.57525000       343.20200       1.8202974     0.031337470
       1866.0000       291.59932       98635.063       13516.981       2.8385000       2.9337500      0.59250000       342.83900       1.9103522     0.029620706
       1871.0000       291.57284       98637.090       13538.629       4.5172500      0.75825010      0.71525000       343.17100       1.8845942     0.026187868
       1876.0000       291.60065       98641.500       13572.686       2.8167500       2.2850000     -0.33750000       343.19500       1.8966659     0.020685747
       1881.0000       291.67627       98646.674       13614.331       2.8592500       2.4482500     -0.16925000       343.22200       1.8051675     0.025471823
       1886.0000       291.71643       98652.108       13617.137       3.7782500       1.6040000     -0.21825000       343.31600       1.8122847     0.026225472
       1891.0000       291.79064       98663.212       13618.094       4.1750000       4.4415000     -0.80400000       342.52900       1.9639500     0.025438379
       1896.0000       291.82352       98668.500       13608.294       3.5307500       4.9740000     -0.79275010       342.87000       1.8503552     0.030399784
       1901.0000       291.81268       98669.945       13543.844       2.4767500       2.5765000      -1.0125000       342.67300       1.8526022     0.032042622
       1906.0000       291.79887       98671.595       13508.884       2.0597500       3.9235000      0.53125000       343.15000       1.8741742     0.028755498
       1911.0000       291.80078       98670.139       13520.121       4.4195000       3.7810000     -0.81425010       342.75400       1.9088389     0.029395523
       1916.0000       291.74025       98670.098       13475.152       3.1847500       2.8652500     0.057500000       343.14800       1.8592728     0.030466424
       1921.0000       291.59336       98670.233       13391.760       4.4227500       3.3245000     -0.21475000       342.50400       1.8757314     0.021045255
       1927.0000       291.50282       98670.183       13309.525       4.7877500       2.0662500      0.10050000       342.95000       1.8983428     0.021328134
       1932.0000       291.40405       98671.497       13201.408       4.2017500       2.2877500      0.26500000       342.93500       1.7795664     0.037665553
       1937.0000       291.36250       98669.937       13147.459       4.2592500      0.80875000    -0.083750000       343.24900       1.8493557     0.025279717
       1942.0000       291.37788       98668.421       13103.581       2.0342500       1.6677500      0.35975000       343.73700       1.8176016     0.028947694
       1947.0000       291.41007       98663.239       13115.038       3.3505000      0.55600010      0.30775000       343.29800       1.8098545     0.025040979
       1952.0000       291.49553       98652.974       13195.322       2.3907500       2.6540000     0.075500000       343.13400       1.8112405     0.027251463
       1957.0000       291.51911       98646.025       13228.046       3.1535000      0.89250000    -0.058500000       343.76100       1.8352823     0.022056811
       1962.0000       291.55694       98636.151       13286.117       3.5437500       1.3375000      0.65600000       343.40900       1.8392646     0.029898516
       1967.0000       291.56364       98631.374       13323.288       3.4027500       3.3255000      0.44850000       342.84900       1.8557372     0.030684721
       1972.0000       291.50129       98629.288       13308.705       5.6832500       2.1060000     0.035250000       342.93800       1.8595948     0.021974790
       1977.0000       291.48759       98629.552       13349.061       4.8885000       1.6170000     -0.40650000       343.00200       1.8649431     0.028686420
       1982.0000       291.50006       98634.570       13445.806       4.0885000       2.1062500     -0.12450000       343.37100       1.8578524     0.034829868
       1987.0000       291.50006       98636.601       13481.461       5.3797500      0.82950000      0.70275000       343.20900       1.8417942     0.021932811
       1992.0000       291.47799       98637.878       13497.707       4.6472500       3.0032500      0.12400000       343.27500       1.8505532     0.021056767
       1997.0000       291.51042       98642.417       13526.375       6.3685000       3.4432500      -1.0527500       342.86100       1.8775731     0.021531258
       2002.0000       291.58328       98645.483       13537.781       4.3075000       2.5685000      0.49125000       342.99100       1.8370754     0.027552283
       2007.0000       291.62269       98654.343       13537.037       3.9817500       1.7857500      0.93975000       343.21500       1.8581832     0.038754369
       2012.0000       291.68633       98674.827       13540.057       4.3087500       3.0422500     -0.91825000       342.79200       1.8531224     0.024689819
       2018.0000       291.73711       98680.872       13546.683       3.0840000       3.1735000     -0.57975000       342.95800       1.8157827     0.025958160
       2023.0000       291.74619       98680.048       13524.573       4.2822500       2.3915000     -0.60800000       342.97400       1.8177550     0.026501085
       2028.0000       291.76633       98683.219       13522.543       2.8595000       1.2995000    -0.028750000       343.39800       1.8417039     0.025962618
       2033.0000       291.80330       98680.761       13546.568       3.1382500       1.8947500     -0.37800000       343.27600       1.8643630     0.024125188
       2038.0000       291.81477       98678.773       13557.999       3.0037500       1.7215000      0.47825000       343.70100       1.8393551     0.023909448
       2043.0000       291.80050       98681.664       13554.797       4.5705000       1.7127500      0.37900000       343.00000       1.8496324     0.024820422
       2048.0000       291.80061       98679.940       13565.669       3.8250000       1.1827500      0.93525000       343.36300       1.8055219     0.028550110
       2053.0000       291.80942       98670.667       13604.504       4.2312500       2.6250000     -0.24875000       343.05000       1.8493439     0.022442676
       2058.0000       291.79041       98666.565       13593.889       1.8442500      0.94225010      0.77150010       343.49200       1.7792510     0.031291928
       2063.0000       291.75386       98667.485       13554.193       4.2947500      0.98275010      0.14625000       343.27100       1.8298092     0.026663080
       2068.0000       291.73385       98661.697       13540.072       4.2992500       2.7052500     0.068250000       342.99300       1.8338444     0.024991980
       2073.0000       291.70531       98648.764       13518.035       3.8052500      0.88975010     -0.59100000       342.99700       1.8533355     0.020964830
       2078.0000       291.67536       98647.374       13486.166       3.0817500       2.1937500      0.50050000       343.37500       1.8385456     0.024835441
       2083.0000       291.66300       98651.718       13470.187       3.5232500       3.1222500     -0.33425000       343.01300       1.8144865     0.025178000
       2088.0000       291.62459       98647.896       13431.580       3.8872500       1.9075000     -0.25750000       343.20400       1.8053823     0.025436610
       2093.0000       291.54224       98647.161       13348.197       4.3770000       4.2415000     -0.12825000       342.75800       1.8418910     0.024239129
       2098.0000       291.52954       98643.501       13320.773       3.9000000       1.8390000     0.048500000       343.16000       1.8767566     0.020298874
       2103.0000       291.54215       98628.528       13318.253       3.3195000       2.1845000     -0.84725000       343.31700       1.8365160     0.024072497
       2109.0000       291.55456       98627.413       13307.532       2.0627500       1.5905000    -0.083250000       343.64800       1.8060936     0.026332078
       2114.0000       291.60572       98635.328       13313.768       1.9382500       1.2257500     -0.45975000       343.59800       1.8588439     0.021906192
       2119.0000       291.60004       98635.800       13316.119       2.8367500       1.1235000      0.21300000       343.27500       1.8725807     0.021506414
       2124.0000       291.60004       98639.691       13331.786       1.6640000       1.7875000     0.077000010       343.80900       1.8262734     0.024703856
       2129.0000       291.58513       98644.846       13351.795       1.9620000       1.7905000      0.51850000       343.29700       1.8477343     0.024299941
       2134.0000       291.59381       98649.685       13403.479       2.5870000       2.4552500     -0.37900000       343.03900       1.8484348     0.019799420
       2139.0000       291.61479       98655.760       13476.443       4.2445000       1.7120000     -0.55875000       343.46000       1.8720151     0.021175832
       2144.0000       291.64929       98666.585       13580.378       3.2650000       1.4387500     -0.34325000       342.69200       1.8572797     0.024240634
       2149.0000       291.66962       98670.357       13636.474       2.2297500       1.9702500     -0.90450010       342.96700       1.8662178     0.026634074
       2154.0000       291.69431       98670.906       13705.297       3.0922500       2.3532500      0.17575000       342.91900       1.8301906     0.025938920
       2159.0000       291.74674       98667.314       13737.500       2.8262500       1.9715000      0.42400000       343.28400       1.8135748     0.028197990
       2164.0000       291.79603       98669.036       13755.097       2.7312500       1.8327500     0.017000000       343.30800       1.8118713     0.024238145
       2169.0000       291.90121       98676.342       13773.464       2.3102500       2.1950000     -0.22725000       343.55700       1.8426503     0.027062965
       2174.0000       291.96290       98680.312       13785.729       4.1425000       2.4317500      -1.3142500       342.72100       1.8253814     0.040860109
       2179.0000       292.00023       98690.332       13763.684       3.3390000       2.5395000     -0.16675000       343.18900       1.8722074     0.023940748
       2184.0000       292.01282       98692.837       13751.424       3.5527500       1.7152500     0.016750000       343.62500       1.8384028     0.024326017
       2189.0000       292.00089       98690.425       13743.600       2.1255000       2.7475000    -0.057000000       343.44400       1.8280805     0.027085169
       2194.0000       291.95783       98681.273       13751.188       1.8822500       1.4932500      0.22500000       344.01400       1.8588952     0.032326975
       2200.0000       291.86285       98668.895       13700.888       1.8872500       1.8672500     -0.14425000       343.72400       1.8281456     0.022270461
       2205.0000       291.83539       98663.097       13688.073       1.8960000      0.24200000       1.0900000       343.74000       1.8037575     0.024901173
       2210.0000       291.87264       98663.943       13715.639       2.9902500       2.1830000     -0.25025000       343.42900       1.7979115     0.024525822
       2215.0000       291.85176       98659.794       13686.087       1.4665000      0.46025000       1.1037500       344.31100       1.8727211     0.022010600
       2220.0000       291.80853       98653.475       13616.521       1.5057500       1.3482500      0.36625000       344.05200       1.8344352     0.023478084
       2225.0000       291.79896       98649.505       13591.326       3.1307500       2.4220000     -0.60350000       343.27300       1.8235353     0.022349414
       2230.0000       291.76724       98643.696       13539.093       1.9817500       1.4752500      0.50775000       343.91200       1.7964497     0.027754587
       2235.0000       291.73863       98638.845       13505.316       2.0205000       2.2645000     -0.14300000       343.64800       1.7943796     0.028310765
       2240.0000       291.72760       98636.792       13510.492       1.4465000       1.9777500     -0.34450000       344.03700       1.8248940     0.025998195
       2245.0000       291.74912       98634.740       13533.725       4.5175000       4.2250000     0.091000010       342.82200       1.8293423     0.027087309
       2250.0000       291.77883       98631.101       13558.448       2.5227500       3.1555000     -0.26500000       343.49400       1.8630317     0.023118369
       2255.0000       291.80025       98629.204       13588.881       3.7997500       2.4117500     -0.24800000       343.03000       1.8210178     0.036502587
       2260.0000       291.86731       98629.021       13669.839       1.0290000       2.7182500     -0.27575000       343.60800       1.8488461     0.023776489
       2265.0000       291.91568       98630.206       13725.081       3.4742500       4.5857500      0.57625000       342.98100       1.8455475     0.026100856
       2270.0000       291.90555       98633.670       13736.987       1.9155000       5.9147500     -0.29900000       342.55600       1.8204620     0.028081614
       2275.0000       291.94752       98635.625       13788.475       3.2030000       3.8667500     -0.88875000       342.80400       1.8383266     0.021248860
       2280.0000       292.07106       98636.400       13875.416     -0.18150000       2.8925000      0.92950000       343.81100       1.8564114     0.022822299
       2285.0000       292.11847       98640.579       13939.205       4.1665000       6.0100000     -0.74550000       342.57500       1.8803437     0.026949097
       2291.0000       292.15151       98646.776       14066.628       2.4942500       3.6322500      0.25725000       343.01900       1.8599681     0.034717605
       2296.0000       292.16454       98652.237       14088.041       2.5540000       2.3857500     -0.17150000       343.15700       1.8117613     0.027922342
       2301.0000       292.11753       98664.385       14041.510       1.9067500       3.1445000      0.19200000       343.31500       1.8209293     0.036334259
       2306.0000       292.08733       98668.342       13994.442       2.4042500       5.3195000      -1.0605000       342.88000       1.8309961     0.023139531
       2311.0000       292.07482       98664.572       13870.567       1.7915000       1.4635000      0.75750010       343.35700       1.8763200     0.019811645
       2316.0000       292.04127       98665.520       13801.256       1.6305000       4.6525000     -0.47625000       342.85100       1.8519979     0.024236184
       2321.0000       291.98109       98665.848       13764.158       2.1585000       4.3730000     -0.29800000       342.43400       1.8643616     0.024184008
       2326.0000       291.93088       98664.841       13701.602       3.0727500       3.5657500     -0.71975000       342.60500       1.8404426     0.029777433
       2331.0000       291.85405       98662.080       13620.522      0.46750000       2.6832500      0.15175000       343.33100       1.8426964     0.027183200
       2336.0000       291.83139       98665.874       13582.969       1.6500000       2.6175000     -0.45975000       343.02700       1.8102914     0.029105691
       2341.0000       291.85626       98674.875       13558.788       1.6892500       3.0740000     -0.52100000       343.36400       1.8187485     0.026230442
       2346.0000       291.84625       98676.530       13530.704       2.4287500       1.8927500      0.84525000       343.73700       1.8370701     0.022527153
       2351.0000       291.85681       98681.200       13538.607       3.8027500       2.8695000     -0.92975000       343.02000       1.8736546     0.023272663
       2356.0000       291.85283       98682.024       13534.568      0.77875010       3.5120000      0.19300000       343.60700       1.8977543     0.019838362
       2361.0000       291.80528       98671.505       13500.278       3.4165000       4.1927500     -0.75050000       343.03800       1.8808561     0.030012727
       2366.0000       291.78915       98668.362       13497.413       3.2940000       2.7740000      0.34675000       343.04600       1.8394094     0.021142107
       2371.0000       291.84024       98670.304       13544.532       5.1130000       2.7372500     -0.18750000       343.26500       1.9064663     0.018395088
       2376.0000       291.79847       98670.282       13543.011       2.1187500       3.0675000      0.37550000       343.35600       1.8579162     0.027832004
       2382.0000       291.65192       98671.372       13502.760       3.9710000       1.9840000     -0.31150000       343.03400       1.8592766     0.030420524
       2387.0000       291.62417       98669.725       13509.212       2.0177500       3.6472500       1.1790000       342.94800       1.8390464     0.023905733
       2392.0000       291.58727       98668.436       13521.071       1.8387500       3.1622500     0.032000000       343.17500       1.7926815     0.027898340
       2397.0000       291.58575       98663.297       13522.552       2.7570000       3.3782500      -1.1277500       343.19400       1.8018794     0.033766557
       2402.0000       291.70982       98652.110       13564.095       2.9245000       3.4555000    -0.087000000       342.98800       1.8664493     0.020093181
       2407.0000       291.72097       98646.818       13562.267       2.7345000       2.1245000     0.044500000       343.36600       1.8461862     0.037383267
       2412.0000       291.68161       98641.606       13520.903       2.5705000       3.3665000     -0.13675000       342.99800       1.8591480     0.023470239
       2417.0000       291.62819       98637.254       13482.930       2.4352500       1.0175000      0.43125000       343.56200       1.8736553     0.019854022
       2422.0000       291.49544       98636.130       13411.179       1.0960000      0.48300000      0.49675000       344.15000       1.7898659     0.037942859
       2427.0000       291.47455       98634.158       13408.529       3.2155000       1.3877500     -0.18500000       343.48400       1.7902900     0.037236316
       2432.0000       291.49792       98630.578       13444.708       4.8147500       2.2062500     -0.26800000       342.58500       1.8313245     0.026095344
       2437.0000       291.49408       98629.268       13440.593       2.5322500      0.63125000       1.1040000       343.65300       1.8502546     0.025366123
       2442.0000       291.54533       98630.319       13457.042       1.5517500       2.3465000      0.18400000       343.19800       1.8831437     0.021622938
       2447.0000       291.56876       98630.334       13475.477       2.8437500       2.2632500     -0.85350010       342.91300       1.8576113     0.024890494
       2452.0000       291.53128       98630.456       13448.297       1.9112500       2.1642500      0.93550000       343.29300       1.8379880     0.031896505
       2457.0000       291.55319       98630.487       13462.660       6.1815000       2.2582500      0.31700000       342.38000       1.8519056     0.021548311
       2462.0000       291.62842       98630.503       13525.566       2.9857500       3.3502500      0.19725000       342.85700       1.8385817     0.023695944
       2467.0000       291.67851       98630.578       13576.702       3.7882500       3.4515000      0.37350000       342.77900       1.8364856     0.030319473
       2473.0000       291.73045       98630.322       13626.924       2.1392500       2.2150000      0.11075000       343.13500       1.8796110     0.018471095
       2478.0000       291.79942       98630.335       13690.840       3.2410000       2.6135000     -0.73675000       342.94000       1.8333657     0.039152491
       2483.0000       291.89676       98629.415       13799.038       3.0920000      0.97550000      0.24775000       343.47000       1.8563365     0.024424997
       2488.0000       291.94821       98631.294       13847.076       2.8105000       2.7142500      0.90000000       343.03200       1.8310256     0.026736715
       2493.0000       292.02445       98632.991       13883.393       3.3902500      0.42050000      0.10050000       343.07200       1.8483721     0.025053239
       2498.0000       292.00981       98638.626       13892.466       3.8190000      0.95400010      0.24075000       343.38700       1.8469194     0.026075166
       2503.0000       291.93767       98649.644       13874.842       3.9857500       1.7460000     -0.47575000       343.18500       1.8515211     0.025041671
       2508.0000       291.84020       98654.807       13824.368       4.2837500       2.2670000     -0.93525000       343.21200       1.8895844     0.030005298
       2513.0000       291.65628       98660.954       13732.733       2.8647500       2.6477500      0.62025000       343.49500       1.8745995     0.020361400
       2518.0000       291.57344       98663.305       13675.814       1.6437500       2.8780000      0.49775000       343.34600       1.8861293     0.021935419
       2523.0000       291.49068       98660.353       13596.034       4.3187500       2.6037500   -0.0077500000       342.80100       1.8341344     0.032734308
       2528.0000       291.45698       98660.366       13542.653       2.3715000       1.4392500      0.50075000       343.32400       1.8817352     0.027113791
       2533.0000       291.48200       98660.075       13509.676       3.0967500       1.3150000      0.38950000       343.20700       1.8532384     0.034125771
       2538.0000       291.51923       98660.015       13498.573       1.9682500       1.3615000       1.0830000       343.84500       1.9238244     0.022300158
       2543.0000       291.58265       98659.389       13492.952       4.7772500       1.2505000     -0.82750000       342.89200       1.8828870     0.022810666
       2548.0000       291.64070       98661.202       13500.170       4.4677500       1.6857500      0.29125000       343.28800       1.8602318     0.024190673
       2553.0000       291.76029       98664.804       13546.452       5.4910000       1.4132500      0.58300000       342.80000       1.8240990     0.023860588
       2559.0000       291.78388       98667.208       13577.477       2.7960000       1.5602500      0.28950000       343.31800       1.8762520     0.021298134
       2564.0000       291.76217       98670.977       13593.937       1.8572500       1.1220000      0.52575000       343.75100       1.8712838     0.020515199
       2569.0000       291.68467       98671.816       13621.000       2.6490000      0.23850000      0.90975000       343.34400       1.8131524     0.023325641
       2574.0000       291.64292       98670.972       13653.055       2.7842500       2.9957500     -0.31925000       342.98000       1.8000542     0.030527393
       2579.0000       291.64489       98665.761       13713.494       2.9892500       1.7032500     -0.36150000       343.38200       1.8227467     0.026245972
       2584.0000       291.60644       98664.638       13731.454      0.91850010       2.1130000      0.64850000       343.39200       1.8434111     0.023326964
       2589.0000       291.55564       98664.737       13730.141       3.5122500       2.7515000     -0.54750000       342.68100       1.8738835     0.020892056
       2594.0000       291.50154       98664.522       13720.967       1.9772500       2.5507500    0.0060000000       343.58800       1.8235848     0.033894048
       2599.0000       291.46111       98665.678       13696.920       2.6352500       2.0300000     -0.45300000       343.40800       1.8600402     0.030061613
       2604.0000       291.38856       98670.990       13631.259       2.2602500       3.7342500     0.048000000       343.26300       1.8850199     0.022446006
       2609.0000       291.41463       98670.157       13634.950       3.1072500       3.3470000      -1.5640000       343.00400       1.8495650     0.022176322
       2614.0000       291.40586       98670.097       13599.687       1.9442500       2.3262500     0.088000010       343.21100       1.8276606     0.042229246
       2619.0000       291.35481       98670.394       13500.449       2.5415000       1.4797500     -0.27875000       343.52200       1.8419752     0.021674469
       2624.0000       291.34382       98670.454       13462.243       1.3022500       1.2535000    -0.047000000       343.98500       1.8849707     0.021371624
       2629.0000       291.35999       98671.802       13445.356       1.6712500      0.99175010      0.22725000       343.16100       1.8282366     0.026568084
       2634.0000       291.35017       98670.943       13420.285       1.9212500     -0.12625000      0.89350000       343.57000       1.8558244     0.024058749
       2639.0000       291.34041       98668.849       13411.505       3.6457500       2.1812500     0.029500000       342.80300       1.8250112     0.027930597
       2644.0000       291.37109       98665.416       13455.417       2.6262500       1.2692500      0.10300000       343.53500       1.8387698     0.026013150
       2650.0000       291.25672       98661.302       13447.461       3.1032500       1.4467500      0.10700000       343.12500       1.8287300     0.024588791
       2655.0000       291.18650       98659.437       13439.836       3.2375000       3.1785000     -0.47425000       342.81600       1.8263926     0.028196655
       2660.0000       291.07088       98663.033       13441.539       2.8712500       2.0287500    -0.057000000       343.11600       1.8344496     0.023131692
       2665.0000       291.02379       98660.807       13443.667       3.3825000       2.8972500     -0.43975000       342.81500       1.8443826     0.022268011
       2670.0000       291.01524       98653.506       13405.804       3.7740000       2.2782500     0.070750010       342.90100       1.8076148     0.027132113
       2675.0000       291.03886       98649.536       13424.199       4.4067500       1.7567500     0.045500000       343.21600       1.8061415     0.023440116
       2680.0000       291.15757       98642.272       13513.967       3.6817500       3.0265000     -0.46775000       342.78700       1.8613026     0.023699309
       2685.0000       291.21642       98638.554       13552.629       4.3350000       1.5782500      0.49350000       343.05700       1.8210607     0.023820967
       2690.0000       291.23812       98640.305       13577.827       3.1757500       3.0392500     -0.97475000       342.72500       1.8427638     0.034084157
       2695.0000       291.31017       98640.321       13628.235       1.7980000       2.1917500      0.33125000       343.26400       1.8488820     0.025002495
       2700.0000       291.40396       98640.176       13652.193       2.9825000       3.3790000     -0.37075000       342.51700       1.8381978     0.026820722
       2705.0000       291.46443       98640.117       13695.458       3.5117500       1.6142500     -0.20700000       342.36800       1.8495896     0.023547095
       2710.0000       291.54335       98640.371       13773.434       4.0115000       2.1417500     -0.16150000       342.60700       1.8130341     0.025554427
       2715.0000       291.62123       98640.410       13861.482       3.8960000       2.4655000     -0.30000000       342.22000       1.8342086     0.025012063
       2720.0000       291.66806       98641.732       13981.498       2.5992500       1.7205000      0.24325000       342.76700       1.8900780     0.019347503
       2725.0000       291.70788       98640.665       14055.541       2.4867500       2.5980000     -0.16100000       342.64600       1.8324452     0.024739802
       2730.0000       291.76578       98636.773       14146.982       2.3952500       2.9452500     -0.65550010       342.89600       1.8480017     0.014427381
       2735.0000       291.81456       98634.682       14195.234       1.3102500      0.63425000       1.2032500       343.54000       1.8351130     0.023860446
       2741.0000       291.85072       98630.863       14188.376       2.2597500       1.9565000     -0.13775000       342.88100       1.8309028     0.024416649
       2746.0000       291.85700       98629.254       14156.163       2.6752500       1.7847500      0.30350000       343.23800       1.8251678     0.022373050
       2751.0000       291.85661       98630.274       14071.507       1.5087500       1.9267500      0.27750000       344.11200       1.8264387     0.027163425
       2756.0000       291.85299       98630.274       14027.085      0.97750000       1.9620000     0.030750000       343.55200       1.8374414     0.024815508
       2761.0000       291.80512       98630.274       13965.577       1.1395000       3.3125000      0.30025000       343.27600       1.8304910     0.027272004
       2766.0000       291.78898       98630.274       13924.067       1.6300000       1.6637500      0.48275000       343.38200       1.8318379     0.024305806
       2771.0000       291.78671       98633.033       13921.688       2.2175000      0.99625000       1.0170000       343.58400       1.8355075     0.024260878
       2776.0000       291.80053       98630.262       13908.311      0.79675000       2.3325000      0.25250000       343.91200       1.8301029     0.022796916
       2781.0000       291.82533       98622.707       13875.300       1.2745000       2.3080000      0.15275000       344.09500       1.8032602     0.027439404
       2786.0000       291.85940       98618.740       13873.689     0.079750000       2.3632500      0.48650000       344.05600       1.8330061     0.025473511
       2791.0000       291.97251       98611.224       13922.378       1.9497500       1.4947500     -0.16050000       343.78100       1.8339546     0.025297717
       2796.0000       291.96802       98607.969       13918.029       1.4060000       2.3902500     -0.12525000       343.61200       1.8368668     0.024774103
       2801.0000       291.86760       98610.459       13876.467       1.2912500       1.5145000      0.52900000       344.33500       1.8286308     0.021459344
       2806.0000       291.83786       98610.560       13879.616       2.3032500       2.5165000    -0.040000000       343.41900       1.8902351     0.021983634
       2811.0000       291.75331       98610.345       13865.140       1.0127500       2.5522500      0.74725000       343.96100       1.8269667     0.017061560
       2816.0000       291.72453       98610.363       13879.442       2.1267500       3.7817500      0.93625000       343.60900       1.7600373     0.030480476
       2821.0000       291.80865       98610.480       13986.084       3.6505000       3.0917500     -0.78950010       343.15700       1.8141529     0.027619534
       2826.0000       291.81103       98610.561       14002.739       2.2012500       2.1575000       1.1440000       343.69400       1.8397593     0.021097963
       2832.0000       291.76928       98610.308       13970.075       3.3875000       3.0517500    -0.030250000       343.61400       1.7702625     0.043126386
       2837.0000       291.73289       98610.335       13938.220       3.5735000       2.9907500      0.85675000       342.95800       1.8107796     0.028439948
       2842.0000       291.65782       98610.199       13851.802       1.6705000       3.3830000     -0.69225000       342.56300       1.8320554     0.021396756
       2847.0000       291.62376       98610.183       13808.555       2.6815000       1.9780000     -0.26825000       344.18900       1.8613985     0.021148572
       2852.0000       291.60041       98610.478       13789.921       1.7402500       2.6890000     -0.37700000       343.01100       1.8386443     0.021894649
       2857.0000       291.58661       98610.581       13751.240       1.6102500       1.8962500      0.80500010       343.66100       1.8265858     0.029167441
       2862.0000       291.57698       98610.349       13693.837       1.7695000       1.8970000      0.67625000       343.79100       1.8545361     0.024375101
       2867.0000       291.61016       98610.365       13683.495       4.0642500       3.1247500     0.064750000       343.63200       1.8350287     0.028416259
       2872.0000       291.66267       98610.443       13666.023       2.3940000       4.3460000    -0.068750000       342.61800       1.8827089     0.025391066
       2877.0000       291.73592       98610.546       13704.542       1.7877500       3.9195000     -0.90700010       343.46100       1.8516212     0.027515673
       2882.0000       291.84056       98610.336       13808.305       1.1375000       3.1662500     -0.54800000       343.07100       1.8454489     0.024650408
       2887.0000       291.97314       98610.336       13898.016       2.9105000       3.5067500     -0.40450000       343.27200       1.8458173     0.022846716
       2892.0000       292.13486       98610.478       13984.688       3.2802500       2.5572500      0.71625010       342.98000       1.9059459     0.020557734
       2897.0000       292.29020       98610.582       14132.123      0.32650000       1.8832500      0.27850000       343.11000       1.8899185     0.023574108
       2902.0000       292.52245       98610.349       14342.370       2.0967500       1.8842500      0.75600000       344.19700       1.8307015     0.024591651
       2907.0000       292.63691       98610.365       14499.339    -0.042000000       3.6270000     -0.43400000       343.19000       1.8463988     0.023396975
       2912.0000       292.74514       98610.494       14769.380       2.1987500       6.7502500      0.38675000       342.93300       1.8735691     0.032168689
       2917.0000       292.72078       98610.581       14810.325       2.6615000       5.9885000     -0.85850010       342.73400       1.8767491     0.032032811
       2923.0000       292.54270       98607.672       14698.507       1.7892500       3.7620000    -0.035250000       343.25200       1.8395455     0.026733926
       2928.0000       292.40603       98613.325       14561.571       4.6637500       2.5105000    -0.049500000       342.85400       1.9136673     0.019517805
       2933.0000       292.15585       98625.188       14256.864       3.0295000       1.8817500      0.73675000       343.68800       1.8423935     0.027224961
       2938.0000       292.03163       98629.361       14093.491       1.0650000       2.9212500      0.28800000       344.43400       1.8570933     0.024421194
       2943.0000       291.94422       98638.568       13945.479       2.0272500       2.4652500     -0.36725000       343.35700       1.8368631     0.027927484
       2948.0000       291.89051       98636.297       13823.253       2.7992500       2.4650000     0.038000000       343.39500       1.8291205     0.037953747
       2953.0000       291.85977       98620.990       13716.320       2.4755000       3.8610000     -0.21500000       343.15100       1.8652580     0.023368636
       2958.0000       291.92503       98615.873       13694.606       4.0140000       4.4600000     -0.23225000       342.48800       1.8568399     0.021485383
       2963.0000       292.08477       98609.545       13730.456       3.0215000       5.1987500     -0.41975000       342.46600       1.7963368     0.036575189
       2968.0000       292.16527       98607.182       13736.947       4.3180000       2.6035000     -0.42150000       343.38400       1.8375367     0.027004557
       2973.0000       292.30513       98610.195       13808.627       1.9850000       1.4390000       1.0050000       343.72000       1.8245224     0.026356459
       2978.0000       292.36937       98610.181       13839.445       4.8272500       3.3645000     -0.32500000       343.21800       1.7890796     0.028174856
       2983.0000       292.35463       98610.465       13830.203       2.3635000       3.6402500    -0.086000000       343.51000       1.8737625     0.022096169
       2988.0000       292.35551       98610.490       13827.847       3.4232500       2.0017500      0.43400000       343.33000       1.8226192     0.022495443
       2993.0000       292.36670       98608.591       13852.174       1.1430000       2.6342500       1.1327500       344.08700       1.8211632     0.026901858
       2998.0000       292.33993       98612.345       13839.419       2.7325000       2.5407500     -0.78375010       342.92300       1.8474636     0.023947037
       3003.0000       292.27121       98621.255       13780.438       1.8910000       2.3097500      0.27925000       344.41400       1.8787499     0.022578042
       3008.0000       292.20206       98621.524       13751.301       2.1082500       1.1400000     -0.65500000       343.87000       1.8424773     0.024988564
       3014.0000       292.10656       98621.291       13723.623       1.4562500       1.5517500      0.50700000       344.54400       1.8709610     0.021071912
       3019.0000       291.95407       98613.318       13687.603       3.5885000       3.0857500     -0.21400000       344.22500       1.9349043     0.018696341
       3024.0000       291.87892       98609.020       13679.382       3.8972500       5.0597500  -0.00050000000       344.18300       1.8993520     0.020676738
       3029.0000       291.81493       98610.425       13690.685       4.1547500       4.8835000     -0.81475000       342.94600       1.8730011     0.022345549
       3034.0000       291.81888       98610.472       13715.393       2.5765000       3.9277500     -0.77550010       343.18200       1.9161663     0.020528141
       3039.0000       291.88429       98610.492       13757.753       1.9270000       3.7960000       1.4067500       343.98700       1.8312116     0.023615801
       3044.0000       292.04776       98610.472       13833.069       2.3705000       3.4612500       1.0277500       343.75000       1.9083832     0.028844268
       3049.0000       292.13876       98610.492       13875.292       4.8305000       2.9880000      0.34200000       343.63600       1.8363794     0.031380432
       3054.0000       292.26208       98610.211       13911.907       4.0527500       3.1500000     -0.76175000       343.23900       1.9068915     0.020662762
       3059.0000       292.33065       98610.215       13950.237       2.1102500       3.4585000      0.50325000       344.15100       1.9055445     0.031503568
       3064.0000       292.36374       98610.191       14016.343       4.4207500       3.2917500     0.030250000       343.31000       1.8952317     0.026559986
       3069.0000       292.40005       98610.425       14202.660       3.8015000       3.8762500     -0.37400000       342.34000       1.8863019     0.028743994
       3074.0000       292.37460       98610.473       14263.863       3.9267500       1.9320000      0.40725000       344.19200       1.9060773     0.027820789
       3079.0000       292.21009       98611.833       14229.326       3.1010000       2.6362500    -0.043250000       343.47200       1.8269851     0.037615699
       3084.0000       292.13816       98610.975       14228.630       3.6057500       3.1570000      -1.1142500       342.61800       1.8992100     0.032252657
       3089.0000       292.09087       98608.880       14205.061       2.4795000       2.8500000     -0.45975000       343.04000       1.8608007     0.027968847
       3094.0000       292.03760       98605.249       14104.991       3.0090000       1.1237500      0.56575000       343.69400       1.8628999     0.025084039
