MIRICO/SHELL project - Processed LDS file generated on
Mon Jul 24 20:21:11 2017
Time stamp for record start
05/12/2017  13:22:58.0000
Nb of points in the record
         440
Beam position index
       2.0000000
Beam angle (degrees)
      -8.6380000
Open Path length (m)
       64.850000
****************** Temporal data record ************************
Elapsedtime_sec Temp_K Press_Pa Humidity_ppmv WindX_m/s WindY_m/s WindZ_m/s Speedofsound_m/s CH4vmr_ppmv CH4vmrerror_ppmv  
      0.00000000       289.04546       98905.944       13859.061       7.3815000      -1.7685000      0.42050000       341.50000       1.9623402     0.011479781
       5.0000131       288.93537       98905.685       13781.217       4.6307500      -1.7305000      0.49375000       341.67200       1.8860764     0.012212469
       10.000026       288.93339       98904.650       13783.265       5.9632500     -0.46800000     -0.16675000       341.46900       1.8964696     0.010726397
       14.999999       288.98510       98904.762       13799.418       2.2362500      -1.6427500       1.5250000       341.91100       1.9164022     0.010292469
       20.000012       289.01122       98905.711       13825.464       6.0570000      -3.6790000      -1.1150000       341.53400       1.8732849     0.015188876
       25.000025       289.09859       98904.375       13904.783       4.2057500      -2.9845000      0.53700000       341.58200       1.9198022     0.010045813
       29.999998       289.12569       98904.970       13959.780       3.4885000      -2.2385000      0.19850000       341.83000       1.8985772     0.011274415
       35.000011       289.07800       98910.324       13974.150       3.5067500     -0.95150010      0.66250000       342.01300       1.8498982     0.012152570
       41.000019       289.12051       98911.918       14080.842       3.7772500      -2.6855000      0.16450000       341.75000       1.8398537     0.015636650
       45.999992       289.21146       98910.141       14249.423       5.0570000     -0.57900010     -0.75825010       341.24300       1.9623598     0.019643718
       51.000005       289.21402       98910.082       14304.068       3.8410000      -1.9237500     -0.99600010       341.59700       2.0697421     0.024514084
       56.000018       289.19647       98911.314       14352.152       4.6745000      0.24375000      0.57325010       341.85100       1.8987330     0.011296357
       61.000031       289.21644       98909.494       14365.155       3.2890000     -0.40725000     0.088250000       342.11300       1.9690150    0.0096646027
       66.000004       289.16797       98904.605       14275.106       7.1265000      -1.2000000     0.097000000       341.71000       1.9613387     0.010188751
       71.000017       289.22215       98904.391       14269.768       4.8467500      -1.0737500      0.68200000       341.85700       1.9382245     0.014310960
       76.000030       289.39619       98905.540       14302.069       4.8177500     -0.48175000     -0.12150000       341.88400       1.8809100     0.010556810
       81.000003       289.45895       98904.579       14313.516       3.5047500     -0.27500000     -0.28275000       341.82700       1.9537409     0.010550471
       86.000016       289.52276       98905.102       14331.137       6.9327500      -1.6415000     -0.77200000       341.67500       1.9749679     0.011600815
       91.000029       289.50807       98906.156       14336.407       3.8017500     -0.92400000   -0.0030000000       341.86300       1.9368175     0.011930576
       96.000002       289.40627       98907.314       14349.817       6.5017500      -1.6435000    -0.020750000       341.67000       2.0684037     0.019898579
       101.00002       289.36611       98902.561       14317.920       4.6020000     -0.57300000       1.1002500       341.76900       2.0005645     0.014333210
       106.00003       289.28490       98892.304       14255.005       6.2945000      -2.2910000     -0.47000000       341.51000       1.9331046     0.011781945
       111.00000       289.28096       98896.735       14207.540       7.5300000     -0.41075000      0.24650000       341.81200       1.8522538     0.020708940
       116.00001       289.34551       98906.937       14124.175       6.5485010     -0.43975000   -0.0090000010       342.55300       1.8802789     0.014397568
       121.00003       289.36570       98904.325       14089.353       5.4537500      0.70400010    -0.012000000       341.36900       1.9714613     0.010912984
       127.00000       289.39467       98905.398       14075.520       3.4155000     -0.36750000      0.49525000       342.36900       1.8452027     0.014912533
       132.00001       289.44642       98910.340       14092.099       3.1027500      -1.5407500       1.0867500       342.91500       1.9534704     0.011563674
       137.00002       289.49546       98905.366       14112.166       7.2090000      -2.3222500      0.37650000       341.53400       1.9484847    0.0098644500
       141.99999       289.61611       98900.449       14143.101       6.1130000      0.69100000       1.1445000       342.49100       1.9757868     0.014246543
       147.00001       289.66904       98905.451       14190.621       4.6702500      -1.0217500      -1.5602500       342.09300       1.8216234     0.023177618
       152.00002       289.63995       98910.330       14275.998       7.4825010     -0.82225010     -0.87225000       341.76200       1.8582341     0.019761011
       156.99999       289.64977       98905.388       14327.466       6.4682500      -2.1952500     -0.43375000       342.13900       1.9938993     0.011074587
       162.00001       289.65953       98900.459       14369.336       6.7397500      -3.6752500      0.19000000       341.99300       1.8832493     0.012660969
       167.00002       289.63701       98905.801       14416.612       5.6225000      -1.5420000     -0.54950000       341.66500       1.8684485     0.014299095
       171.99999       289.67033       98910.840       14450.763       7.3662510      -1.2382500     -0.58000000       341.52000       1.9301836     0.011572187
       177.00001       289.75001       98905.473       14444.652       2.7872500      -2.1600000      0.40250000       342.93400       1.9181976     0.012236700
       182.00002       289.78575       98903.016       14533.323       5.9640000      -2.6862500       1.1985000       342.35700       2.1467210      0.90165670
       186.99999       289.84461       98906.238       14592.331       4.3792500      -1.4612500      0.50125000       342.88700       38.454069       4.8292121
       192.00000       289.93048       98898.214       14627.363       6.3897500      -1.0092500      0.10425000       341.61800     -0.34484076       1.1233139
       197.00002       289.99981       98892.762       14696.669       6.3422500      -3.0625000      -1.0330000       341.29400       4.6212322       1.1737623
       202.00003       290.06914       98892.240       14775.402       3.7790000      -1.9395000      0.58750000       342.56400       5.6179188       4.1145766
       207.00000       290.16848       98906.753       14853.439       7.6250000      -4.5025000     -0.32000000       342.10100       6.2584384       1.0404603
       212.00002       290.18416       98909.538       14910.537       4.8447500      -2.8055000      0.99475000       342.82500       3.7689810       1.3556635
       218.00002       290.15708       98905.066       15007.391       3.7917500     -0.36375000      0.25075000       343.31000       3.1003815      0.94895226
       223.00000       290.07506       98905.712       14981.795       4.7192500      -2.0627500      0.12250000       342.66300       10.823324       1.4621335
       228.00001       290.03605       98905.523       14968.646       5.3140000     -0.33125000     -0.41750000       342.22100       4.4248730       1.0938657
       233.00002       290.00908       98899.794       14944.525       3.2297500     -0.62625000    -0.078000000       342.82600       5.0760844       1.0665339
       238.00000       289.99049       98899.043       14916.923       3.6262500      -2.0777500     -0.28775000       342.17800       4.6645785       1.2846361
       243.00001       290.00005       98905.126       14868.599       8.9340000      -3.4257500       1.1837500       342.39200       4.0448930       1.1255007
       248.00002       289.99993       98905.976       14841.296       8.0137500      -1.2870000     -0.91075000       342.29300       8.8879082       1.2846560
       253.00000       290.00063       98901.733       14801.212       6.0887500      -2.3520000      -1.3682500       342.16300       9.5850057       1.4285516
       258.00001       290.00090       98905.063       14799.597       4.6250000      -1.0977500      0.96100000       342.98200       4.5028353       1.3883451
       263.00002       290.02825       98918.454       14878.352       6.7440000     -0.65550010     -0.89700000       342.46700       3.6733953       1.1434175
       267.99999       290.00568       98916.922       14878.781       7.6957500      -1.7937500     -0.29900000       342.03700       4.4832336      0.97836805
       273.00001       289.94480       98902.880       14830.574       5.1312500      -2.8855000     -0.85700010       342.03800       3.8532661       1.0264732
       278.00002       289.89324       98903.940       14821.817       6.0852500      -1.5277500     -0.71850000       341.70900       8.4160768       1.4703239
       282.99999       289.79939       98909.270       14772.844       3.4697500     -0.70050000       1.0215000       343.07500       9.6732694       1.1464472
       288.00001       289.73125       98904.330       14755.109       6.8467500      -1.5177500    -0.070500000       342.38900       4.1506216       1.0509522
       293.00002       289.70571       98901.620       14860.181       4.4417500      -1.9417500      0.82875000       342.44800       4.4072226      0.81163234
       297.99999       289.64421       98906.649       14840.755       5.9260000     -0.75050000     0.038750000       342.02200       4.0646494      0.91182564
       303.00001       289.54206       98906.748       14726.813       6.9975000      0.39675000     -0.77975000       341.60600       1.5076617      0.99147152
       309.00001       289.47282       98903.724       14631.688       5.7370000      -1.6847500       1.2495000       341.79400       3.5922896       1.5243525
       314.00003       289.38362       98914.963       14474.019       5.4020000     0.044000000     -0.30175000       341.41700       2.6811260      0.92495060
       319.00000       289.37815       98918.499       14389.067       7.0900000      0.18200000     -0.76475010       342.20700      0.97390239      0.96315439
       324.00001       289.45111       98903.075       14326.872       6.8382500      0.10975000     -0.29500000       341.79000       6.3034385       2.0291534
       329.00003       289.51844       98903.040       14334.122       6.0087500      -1.3627500     -0.17825000       341.88500       7.3532279       1.5124103
       334.00000       289.64001       98921.439       14382.583       3.8375000      -1.8925000      0.65500000       342.37600       7.1167828       1.0799770
       339.00001       289.73931       98923.044       14471.555       4.8245000      -1.0665000     -0.44425000       341.75600       6.1255060       1.1680698
       344.00003       289.89097       98914.040       14683.398       3.8760000      -1.7477500      0.31450000       341.74900       5.7851339       1.4755756
       349.00000       289.93580       98915.410       14819.353       4.5315000     -0.71975000     -0.73000000       342.24300       3.2980385      0.87168683
       354.00001       289.91365       98919.786       14977.733       4.8720000     -0.79475000    -0.017250000       341.91200       8.8074346       1.2988026
       359.00002       289.90661       98914.016       15060.946       5.5907500      -2.6757500      -1.0685000       342.37100       4.9017320      0.83045212
       364.00000       289.80998       98903.021       15094.294       4.7200000      -2.6345000     -0.34125000       341.61400       4.2387726      0.90517218
       369.00001       289.77710       98904.669       15088.609       4.2440000     -0.46450000      0.53875010       342.11500       10.274960       1.0319830
       374.00002       289.79999       98908.281       15011.137       4.8555000     -0.70825000      0.67750000       342.46700       9.2312179       1.0860321
       379.00000       289.79999       98903.344       14946.037       5.1857500     -0.51875000      0.16775000       342.00900       5.3633893       1.1027673
       384.00001       289.77309       98905.150       14811.982       3.5842500     -0.30475000     0.035750000       342.07000       6.5056826       1.1088432
       389.00002       289.80081       98907.307       14754.703       3.8252500     -0.53275000     -0.17925000       342.44600       1.4065846      0.89725394
       394.00000       289.86321       98895.684       14724.851       4.9007500     -0.30550000     -0.23175000       341.97500       6.1839484       1.1223391
       400.00000       289.92952       98892.041       14711.661       4.9382500     -0.44500000      0.38225000       342.37700     -0.93153140      0.98511293
       405.00002       290.05342       98904.749       14775.594       5.0552500     -0.40375000     -0.52175000       342.62100       1.6433699       1.2691935
       410.00003       290.08515       98908.555       14773.642       3.4387500      -1.4797500     0.042000000       342.69600       7.2466975       1.1238374
       415.00000       290.02409       98902.357       14720.193       4.3562500      -2.5342500       1.0457500       341.47900       3.3210169      0.98872249
       420.00002       290.06647       98906.223       14741.899       5.5462500    -0.087250000     -0.17700000       342.01700       7.8767230       1.4988939
       425.00003       290.10411       98922.153       14770.050       4.0605000     -0.23325000    -0.012000000       342.80000      -3.1473628       1.0666465
       430.00000       290.18185       98922.775       14819.060       4.3380000      0.10250000     -0.28175000       342.00200       4.3701267       1.0931106
       435.00001       290.36801       98914.280       14914.824       4.4175000      0.59200000      0.18075000       342.16500       7.6064475       1.3531565
       440.00003       290.46553       98915.891       15027.150       3.9847500       2.7947500      0.46800000       342.42500      -2.3742990       1.0211830
       445.00000       290.52789       98918.665       15125.154       5.8182500     -0.23375000     -0.15400000       341.33600       6.8713044      0.95948140
       450.00001       290.59192       98912.289       15288.626       5.5085000      0.61875000    -0.072250000       341.77600       3.5114477      0.91274948
       455.00003       290.63088       98903.229       15568.089       5.1667500     -0.40850000     -0.14850000       341.34300       2.4339232      0.86734359
       460.00000       290.68104       98905.464       15733.851       4.4110000      -1.4802500     -0.24125000       341.78300       5.2083127       1.0532980
       465.00001       290.74138       98903.967       15913.961       4.0400000      0.16200000     -0.28100000       342.52700       6.1234288       1.4577876
       470.00003       290.77486       98903.849       15991.786       2.5200000      0.77575000      0.61800000       343.28200       3.0997885      0.95968904
       475.00000       290.77607       98921.861       15960.678       3.7607500       1.3885000     -0.12975000       342.36500       8.9285059       1.4087214
       480.00001       290.82252       98924.662       15951.268       3.3187500     -0.74100010     -0.19875000       342.66200       4.7480843       1.2635641
       485.00002       290.88384       98908.369       15879.338       3.6115000     -0.54700010     0.084500010       341.93700      -1.2386825       1.0105516
       490.99999       290.93196       98909.640       15844.348       2.9102500     -0.98300000      0.79050000       342.70300       4.0234952       1.0111012
       496.00001       291.00721       98924.178       15823.041       3.9732500      -1.8252500      0.40725000       343.23500       2.3583404       1.0565709
       501.00002       291.03000       98918.812       15803.302       3.0705000     -0.79425000     -0.26875000       343.17500       8.2197878       1.2030220
       505.99999       291.01798       98903.318       15811.208       2.9602500      -1.9415000     0.029250000       342.52400       4.7468023      0.68856427
       511.00000       290.98069       98904.961       15762.447       4.5867500      -1.2225000       1.1517500       342.76000       5.4319331      0.99913906
       516.00002       290.92623       98904.432       15700.843       4.7530000     -0.61800000      -1.1455000       342.47600       10.376240       1.3100982
       521.00003       290.84958       98903.115       15607.709       3.1487500      0.93100010     0.031000000       343.11500       4.4491744       1.2199901
       526.00000       290.70358       98915.298       15459.812       2.6370000     -0.77550010     0.056000000       343.25700       4.6671759       1.0940336
       531.00002       290.64070       98920.445       15352.606       3.5530000     -0.98175010     0.068250000       342.55600       5.0718690       1.3870233
       536.00003       290.61204       98913.181       15254.447       3.4512500     0.013750000     0.021500000       342.34500       2.0369597       1.0307201
       541.00000       290.55139       98915.720       15127.188       4.2477500      -1.4435000      0.14900000       342.02700       1.9085042       1.0861195
       546.00002       290.49767       98931.330       14963.195       3.5575000      -2.8280000     -0.40575000       342.84000       4.7885999       1.2619833
       551.00003       290.47624       98934.818       14902.089       3.9097500     -0.94850000      0.38675000       342.74000       6.0359892       1.0631262
       556.00000       290.43043       98930.299       14840.429       3.3350000      -1.0730000      0.27775000       343.97100       4.5285492      0.94818509
       561.00001       290.44616       98930.265       14858.942       4.5517500     -0.78775010     -0.72800000       341.87500       5.5905159      0.69716453
       566.00003       290.59543       98934.796       15028.484       3.8372500     -0.54875000     -0.75000010       342.78000       5.3833907      0.81824219
       571.00000       290.53150       98925.231       15048.544       4.8167500      -1.1250000     -0.60475000       342.22500     -0.52184236      0.94914136
       576.00001       290.37234       98903.166       15047.554       2.7622500     -0.60800000     -0.19875000       342.77600       5.6374529       1.0710266
       582.00002       290.20372       98910.457       14974.646       4.0215000     -0.67850010     -0.33375000       342.89000       6.5944804       1.2510053
       586.99999       290.07899       98905.532       14884.118       4.2522500     -0.94650010     -0.48500000       341.83100       4.8399273      0.99714082
       592.00001       290.03939       98900.327       14755.934       3.3780000     -0.94600000      0.23050000       342.87000       7.7871086       2.0622805
       597.00002       289.99967       98905.305       14642.818       3.3442500      -1.1090000     0.076500010       343.56200       3.4195317      0.89184743
       601.99999       289.89988       98905.838       14437.652       3.5670000       1.0070000     0.041250000       342.46000       7.1917339      0.90029530
       607.00001       289.87473       98903.482       14346.009       3.6420000      0.68175010     -0.50050000       343.01000       5.5998216      0.86527197
       612.00002       289.89874       98904.807       14316.407       4.1715000      0.55075000     -0.26425000       342.32500      -2.4991159      0.68378537
       616.99999       289.99849       98924.410       14347.192       6.4672500      0.50650000     -0.71250000       341.66200       5.1291381       1.2437035
       622.00001       290.03903       98922.593       14389.170       3.7142500      -1.7630000    -0.098750000       342.62700       7.2437167       1.2293900
       627.00002       290.11209       98902.436       14516.630       3.6660000     -0.35775000      0.19450000       342.19200       4.1071826       1.2970266
       631.99999       290.13007       98918.326       14590.945       4.1932500     -0.13750000      0.41900000       342.65900     -0.62644030      0.85280658
       637.00000       290.11317       98917.974       14640.834       3.0795000     -0.79925010      0.43975000       342.99800       5.6696510      0.92964615
       642.00002       290.05497       98903.212       14683.825       2.7515000     -0.26975000     0.095250000       342.72900       6.6754678       1.2459391
       647.00003       290.00670       98903.965       14710.249       2.3650000      -1.3190000      0.55725000       343.04300       2.0906127       1.0340233
       652.00000       289.94615       98907.176       14716.967       2.3647500     -0.98225000      0.76275000       343.75700       3.6408888       1.0034672
       657.00002       289.84432       98903.641       14697.821       2.2622500    -0.062250000      0.56650000       343.80300       5.1269355       1.0657566
       662.00003       289.78516       98903.008       14656.032       3.6060000      -1.5097500     -0.33325000       342.13600       4.0141736       1.0985848
       667.00000       289.75561       98918.309       14601.879       3.7590000     -0.28225000     0.097500000       342.64300       4.6305487       1.0748903
       673.00001       289.65409       98898.880       14506.461       3.5860000      -1.2040000      0.31325000       343.66500       5.0590412       1.1993904
       678.00002       289.58361       98896.541       14389.741       4.6067500      -1.4547500     -0.76450000       341.65600       3.4777929      0.85186189
       683.00000       289.45623       98917.737       14177.835       4.6932500      -1.2662500    -0.073000010       342.61700       7.0566873       1.0824179
       688.00001       289.42209       98918.054       14072.697       2.6877500      0.43850000      0.94775000       343.24100       2.7786687      0.96256461
       693.00002       289.49183       98903.166       13990.128       2.1730000     -0.23250000      0.66300000       343.23500       6.4717458       1.1387946
       698.00000       289.50167       98904.391       13923.842       5.7120000      -2.0215000     -0.55100000       341.77600       3.0781674      0.91746008
       703.00001       289.54713       98906.081       13940.809       4.0460000      0.57700000     0.098000000       341.70200       4.3972730       1.1338454
       708.00002       289.56436       98903.315       13949.819       5.3402500      0.78775010     0.057000000       342.15300       9.2303034       1.4615181
       713.00000       289.49668       98913.601       13919.213       5.0222500      -1.0287500     -0.88450000       341.78300       3.0317662      0.77299628
       718.00001       289.48936       98918.232       13952.491       5.9417500     -0.83625010    -0.037250000       341.76800       6.4828504       1.2128443
       723.00002       289.52050       98903.740       14052.069       4.6197500      -1.0890000     -0.18200000       342.33400       4.3478360      0.98135879
       727.99999       289.55178       98902.218       14147.668       3.1270000      -2.5715000       1.2367500       342.86500       4.1969292       1.1977334
       733.00001       289.61029       98923.304       14260.986       4.7382500      -2.0580000     -0.33850000       341.75900       3.1608717       1.1178621
       738.00002       289.65983       98923.542       14399.459       4.6320000     -0.63575010      0.15200000       341.63100       3.2286762       1.2612526
       742.99999       289.72389       98907.432       14602.890       4.7737500      -1.9875000     -0.39375000       342.14600       5.8795901       1.2136202
       748.00001       289.76252       98904.587       14734.840       3.7897500     -0.33625000     -0.29375000       342.27200       6.6087229       1.4623699
       753.00002       289.80405       98896.925       14916.712       3.2685000      -2.1692500      0.70250000       342.13700       3.0677992      0.93614522
       759.00003       289.81013       98892.084       14973.061       5.4165000      -2.5600000      0.16400000       341.80100       5.7360213       1.0507620
       764.00000       289.78709       98904.861       14881.737       5.4700000      -2.5675000    -0.028750000       341.76000     -0.74871454       1.4408235
       769.00001       289.73972       98907.723       14799.197       4.0505000      -1.0275000      0.33250000       342.19600       5.8487580       1.0333414
       774.00003       289.61539       98896.990       14622.852       3.7657500    -0.079000000     -0.44800000       342.37900       6.5834368       1.0843963
       779.00000       289.57350       98899.553       14496.720       4.7920000      0.88050000     -0.63950000       341.65500       3.9588388       1.2283537
       784.00001       289.53545       98918.134       14342.069       4.4192500      0.87050000     0.051500000       341.92000       2.1441924      0.78881392
       789.00003       289.53665       98917.342       14261.307       3.3707500     -0.17000000     0.070250000       342.30300       4.0380292       1.0533865
       794.00000       289.61901       98903.419       14200.334       4.2580000    -0.023500000     -0.68800000       341.33300       5.2415023       1.0852179
       799.00001       289.66924       98905.151       14194.681       5.6722500      0.35750000     0.010500000       341.82600       6.9058484      0.97548196
       804.00002       289.73270       98904.617       14285.387       3.3247500      0.13525000      0.68825000       342.37400       4.5740531      0.83091955
       809.00000       289.76931       98903.722       14336.261       6.4507500     -0.20075000     0.090250010       341.47100       3.2864556      0.97724779
       814.00001       289.79516       98921.370       14400.097       6.7797500      -3.2192500   -0.0080000000       341.74600       7.1240863      0.99363172
       819.00002       289.81174       98924.251       14468.072       5.9657500       1.1035000     0.034750000       341.74000       4.6162650       1.0287750
       824.00000       289.81292       98902.290       14550.770       6.6432500     -0.49275000     0.091000010       342.02100       4.8411442      0.98763998
       829.00001       289.79921       98902.520       14593.876       4.5767500      -2.5315000      0.99975000       342.39800       2.2877116       1.1878191
       834.00002       289.75001       98923.815       14633.540       6.0850010      -3.0697500     -0.17400000       341.78300       6.5639824      0.93555133
       839.00000       289.74421       98921.897       14657.643       4.3852500     -0.20975000      0.37225000       342.49000       1.3969677      0.97200516
       844.00001       289.74367       98911.470       14618.951       5.2255000     -0.22175000      0.29175000       342.17700       6.7162677       1.0593018
       850.00002       289.74976       98909.763       14634.616       5.1602500   -0.0020000000    -0.030750000       342.20500       6.3174510       1.2394072
       855.00003       289.83272       98893.239       14713.128       3.1615000     -0.71000000    -0.039000000       342.31600       2.4713861      0.88070951
       860.00000       289.79803       98890.917       14692.653       1.7460000     -0.82325010      0.17125000       342.75600       5.1002069       1.2001573
       865.00002       289.68472       98913.484       14644.553       5.8952500      -1.0320000     -0.23600000       341.83300       4.9496822      0.89031816
       870.00003       289.60907       98912.683       14577.748       5.4205000      -2.3885000     -0.49825000       342.08500       1.2750656      0.95110332
       875.00000       289.46032       98892.039       14422.748       4.4867500      -5.0507500      0.11475000       342.08600       3.3416281       1.0989140
       880.00001       289.39906       98894.041       14331.269       6.3690000      -2.4995000    -0.046250000       341.46000       4.0876377       1.0070967
       885.00003       289.41301       98903.534       14278.334       5.3205000      -1.5715000     -0.16175000       342.12400       5.8056794       1.1312786
       890.00000       289.38321       98906.244       14190.887       3.7177500      -1.1772500     -0.43225000       342.43000       7.2038923       1.8318447
       895.00001       289.34770       98922.367       14059.245       4.5577500     -0.33700000      0.81625000       342.10900       10.480466       1.4490336
       900.00003       289.34421       98923.693       14019.729       4.4445000      0.64875000    -0.080250000       342.20700       9.4128000       1.1578770
       905.00000       289.34302       98901.560       13997.214       5.5987500     0.095500010     -0.10600000       342.06800       7.7493375       1.0374167
       910.00001       289.34900       98903.169       14013.679       4.2795000     -0.65500000     -0.21175000       341.59300       2.5452903      0.97851356
       915.00003       289.39928       98923.999       14125.362       3.7515000     -0.91775010     -0.42325000       341.91300       5.2243401      0.69988737
       920.00000       289.41297       98920.942       14187.659       2.3290000     -0.25400000     0.020500000       342.14000       7.9447634       1.0986935
       925.00001       289.37642       98911.796       14224.030       2.5590000      0.10475000      0.84100000       342.32300       6.2783899       1.1595811
       930.00003       289.40931       98910.097       14306.140       3.9765000      -1.0925000      0.30625000       342.07500       8.4043557       1.3603141
       935.00000       289.49498       98891.409       14430.975       4.2790000      0.19350000     -0.22500000       341.84900       2.5889711       1.0435686
       941.00001       289.52192       98893.824       14520.765       5.2035000      0.97775010      -1.1520000       341.75000     -0.46962256       1.3042311
       946.00002       289.55071       98925.220       14601.938       4.4670000       1.2890000    -0.072250000       341.68400       3.3621288      0.97103239
       950.99999       289.57182       98923.344       14665.425       4.8705000      0.65775000    -0.022250000       341.82300       3.7073235       1.3661132
       956.00000       289.54319       98902.548       14695.194       3.3145000     0.058250000    -0.028250000       342.21200       3.2169097       1.0085889
       961.00002       289.55196       98906.104       14722.160       5.2515000     -0.73800000      0.55700000       341.22800       4.4609422       1.3174218
       966.00003       289.61196       98909.106       14772.071       5.7645000     -0.15200000     -0.45325000       341.76300       4.7029547       1.0915448
       971.00000       289.60476       98909.803       14754.817       6.0727500     -0.81700000     -0.64075010       341.22500       7.7131435       1.4519997
       976.00002       289.54602       98929.641       14666.108       4.4772500     0.078250010      0.31350000       341.58600       5.1631719       1.2296334
       981.00003       289.54493       98928.447       14643.984       3.8505000      0.12900000     -0.32425000       341.86000       8.4597070       1.0110036
       986.00000       289.53466       98901.563       14606.888       5.5945000      -1.3070000     -0.94225010       341.46200       7.6686819       1.1341415
       991.00002       289.56222       98903.760       14614.478       4.5240000     -0.76425000      0.94150010       342.10700       7.0932719       1.7662191
       996.00003       289.64991       98921.395       14672.511       5.2342500   -0.0070000000      0.42150000       341.66100       4.5995990       1.1283399
       1001.0000       289.68143       98922.661       14712.020       4.2300000     -0.66325000      0.16625000       341.84100       4.8183159       1.2667414
       1006.0000       289.71218       98925.901       14761.105       2.6475000      0.85825000      0.28375000       341.88900       1.0625657      0.82917035
       1011.0000       289.70490       98928.113       14800.228       3.6007500     -0.81225000      -1.1025000       341.98100       5.5742890       1.0300555
       1016.0000       289.66394       98917.313       14857.666       3.7405000      -1.7950000     -0.12150000       341.64100       5.6555791      0.95283035
       1021.0000       289.62449       98919.852       14861.762       4.2767500      0.65800010      0.47000000       342.00600       6.2373420       1.4699269
       1026.0000       289.54212       98940.329       14820.597       4.9832500      -1.5775000     -0.37375000       341.79600      -3.5588677      0.88588888
       1032.0000       289.58986       98913.020       14870.104       5.3182500     -0.51475000    -0.094750000       341.45900       3.3071514       1.1257995
       1037.0000       289.56274       98907.340       14859.509       3.9220000     -0.22325000      0.16950000       342.03900       6.4680791       1.0827985
       1042.0000       289.52405       98904.183       14896.485       3.9112500      -1.0097500     -0.15200000       342.00600       6.7085715       1.3923530
       1047.0000       289.46758       98901.487       14847.256       2.8442500     -0.78600000     0.062500000       342.41500      -2.5384813       1.1875610
       1052.0000       289.30022       98927.299       14657.484       3.2517500      -1.2475000     -0.37425000       342.29000       3.4931460       1.1171074
       1057.0000       289.18857       98935.295       14510.572       2.7942500     -0.31650000     -0.40475000       342.39400       2.8813646       1.1744658
       1062.0000       289.10151       98933.444       14359.175       2.2997500      -1.0282500      0.38750000       342.21700       1.5463379       1.0141226
       1067.0000       289.03189       98913.481       14163.817       2.9860000      -2.0600000     -0.31425000       342.28800       6.2932770       1.1586580
       1072.0000       289.01579       98913.827       14060.781       3.2515000      -3.0990000      0.43600000       342.13400       3.3194293      0.75122151
       1077.0000       289.04979       98913.389       14000.221       2.1817500      -1.4262500     -0.67375000       341.60300       5.1629297       1.2315656
       1082.0000       289.03969       98930.229       13932.308       2.4565000     -0.77700000     -0.12725000       342.13800       7.9352659       1.2866828
       1087.0000       289.04958       98934.146       13916.044       2.7980000      -1.5457500     -0.50075000       342.33600       1.6755441      0.81568885
       1092.0000       289.06010       98915.362       13965.950       2.9605000      -1.8475000     -0.15525000       341.95900       5.6067360      0.95185941
       1097.0000       289.05024       98912.920       13988.152       2.4200000      0.92175010      0.83500000       342.49600      0.36855284       1.5653565
       1102.0000       289.04033       98915.381       14018.803       4.9242500      -1.6807500    0.0065000000       341.24500       4.4863132      0.94229569
       1107.0000       289.05053       98917.967       14084.099       4.1555000      -1.1445000    -0.034250000       341.90200       6.8453427       1.0395319
       1112.0000       289.06029       98923.488       14143.621       5.1245000      -1.3170000     -0.11375000       341.65600       3.7196797       1.1987220
       1117.0000       289.04970       98944.332       14185.214       2.9085000      -1.1687500      0.72350000       342.13300       7.4098866       1.0560079
       1123.0000       289.05597       98925.743       14266.495       2.6395000     -0.65750000     -0.14850000       341.65600       5.6786965       1.1702638
       1128.0000       289.05488       98923.118       14310.388       3.2590000     0.036500000      0.74425010       341.99600       6.2606413       1.0578164
       1133.0000       288.99561       98923.448       14289.517       3.4340000      -1.1955000      0.75950000       341.83200       5.6016092      0.94238816
       1138.0000       288.98858       98923.882       14309.761       3.2352500      -1.6647500     -0.26575000       341.96900       2.1878298       1.0145328
       1143.0000       289.06273       98937.306       14396.793       2.1050000      -3.5265000      0.53075000       341.86100       7.3207389       1.2047025
       1148.0000       289.06040       98942.896       14398.294       3.5287500      -4.6875000      0.34075000       341.66800       4.2352031       1.0121671
       1153.0000       289.03873       98940.371       14372.541       4.1320000      -3.5615000     -0.12100000       341.15300       9.4777428       1.0269311
       1158.0000       289.00604       98940.392       14325.864       3.4072500      -3.3822500     -0.29225000       341.72600       4.9289569       1.0400275
       1163.0000       288.87251       98944.419       14172.757       3.9710000      -1.5572500     -0.53050010       341.70300       7.8947522       1.7718961
       1168.0000       288.82579       98940.974       14088.168       2.3722500     -0.93725000     -0.48350000       341.54200       6.5152976      0.84248375
       1173.0000       288.83039       98927.222       14017.005       3.7505000     -0.48550000      0.32850000       341.79200       6.2593344       1.0355056
       1178.0000       288.84272       98923.429       13984.726       3.5370000      -2.2045000      0.17700000       341.58600       2.2556349       1.2138742
       1183.0000       288.93844       98918.691       14023.760       2.4525000     -0.53275000      0.47450000       341.99600       6.9803811       1.2477082
       1188.0000       288.96543       98918.237       14022.741       4.9520000      -1.1052500     0.031500000       341.59900       7.7464226       1.4633044
       1193.0000       288.92802       98937.577       13995.152       2.5307500     -0.88625000       1.0780000       341.91600       5.2734698       1.4278006
       1198.0000       288.94948       98938.687       14026.746       4.2617500      -2.9315000     0.084000010       341.84600       11.718559       1.4370237
       1203.0000       288.99259       98924.335       14084.575       3.8497500     -0.80775000     0.088250000       341.76700       4.9599142       1.1675792
       1208.0000       289.00269       98919.395       14128.055       5.5170000      -3.5777500     -0.50375000       341.26100       3.2199808       1.1213509
       1214.0000       289.03890       98902.230       14230.569       3.0737500      -1.5410000      0.35600000       341.82600       7.8703038       1.4249008
       1219.0000       289.06515       98901.782       14311.720       4.2657500      -1.2675000      0.63225000       341.74100       1.3832592      0.84274671
       1224.0000       289.03014       98926.261       14351.693       3.5087500      -2.7415000     -0.50950000       341.59500       2.1329314      0.99212209
       1229.0000       289.04766       98928.251       14427.787       4.2687500      -1.0787500     -0.24375000       341.68700      0.64382721       1.1899984
       1234.0000       289.15908       98919.730       14602.638       3.1672500     -0.27850000      0.55475000       341.72700       4.5853207       1.0294977
       1239.0000       289.16807       98920.696       14651.287       2.0797500      -2.2225000      0.27400000       341.75200       3.7522925       1.1688196
       1244.0000       289.10760       98911.955       14618.216       2.2522500      -1.0472500      0.59425000       341.91300       5.2839363       1.0324265
       1249.0000       289.09760       98912.831       14621.259       2.7682500      -1.2340000     -0.95075010       341.89700       6.1029708       1.0287382
       1254.0000       289.03670       98937.785       14551.956       3.9382500      -2.5170000     -0.31675000       341.59300       6.7672013       1.1917548
       1259.0000       289.03808       98939.292       14538.887       3.1015000      -2.1022500     -0.23825000       341.73700       1.6999686      0.79663207
       1264.0000       289.13412       98920.392       14597.125       2.7545000      -3.0242500     -0.67400000       341.59200       3.3178533       1.1031673
       1269.0000       289.17086       98918.029       14613.911       2.7125000      -1.4935000      0.57375000       341.86400       2.3969500       1.0890675
       1274.0000       289.19478       98912.295       14602.222       3.1215000      -1.2190000      0.16375000       341.62800       1.6841756       1.1929179
       1279.0000       289.21081       98913.118       14615.419       3.3872500     -0.63400000     -0.19050000       341.85600       4.3311826       1.1815248
       1284.0000       289.20029       98937.880       14630.347       3.1550000      0.35575000      0.17575000       341.56700       3.7964468       1.2903792
       1289.0000       289.20041       98939.091       14653.459       3.2020000      -1.4302500     -0.36525000       341.59100      -7.1004161      0.60904072
       1294.0000       289.21305       98920.836       14717.983       3.0935000      -1.6870000     -0.26475000       341.69700       1.0183918       1.1783793
       1300.0000       289.19508       98918.557       14728.636       3.6400000       1.3985000       1.4627500       341.73000       4.3846801       1.0410144
       1305.0000       289.15722       98912.253       14700.900       4.9870000      -1.3990000    0.0057500000       341.48400     -0.24829691       1.0778872
       1310.0000       289.13717       98914.371       14695.461       3.3655000     -0.43800000    -0.097000000       341.63000      -3.1730105       1.0963113
       1315.0000       289.10062       98937.742       14665.681       4.4452500      -3.6455000     0.050750000       341.60200       2.7910248       1.1754616
       1320.0000       289.08703       98938.941       14657.011       4.6282500      -1.5425000      0.51175000       341.65500       7.5410125       1.2517167
       1325.0000       289.10003       98925.314       14674.164       2.9847500     -0.73200010      0.41950000       341.80600       6.0828349      0.90831051
       1330.0000       289.09997       98923.907       14681.799       5.8857500     -0.48875000     -0.57900010       341.53000       3.0122917       1.0707020
       1335.0000       289.09980       98917.427       14682.208       2.6267500     -0.66925000      0.86600010       341.70800       3.5498949       1.1812562
       1340.0000       289.09968       98918.936       14689.979       3.4117500      -1.3075000     0.083750000       341.75100       2.7333060      0.95366761
       1345.0000       289.09998       98938.864       14715.059       2.0020000      -1.2607500      0.26225000       341.82600       4.4415375      0.97703180
       1350.0000       289.10004       98937.199       14718.241       2.6962500      -1.3227500      0.25800000       341.72800       3.0475111       1.0227339
       1355.0000       289.11156       98922.059       14726.039       2.9837500      -1.5632500     -0.31625000       341.60900       4.9728603       1.2673053
       1360.0000       289.09558       98917.027       14697.508       3.4297500      -2.0690000     -0.11125000       341.76300       7.7715999       1.0534942
       1365.0000       289.05763       98901.399       14624.313       2.9890000      -2.0542500    -0.030250000       341.51500       5.3154514      0.73945859
       1370.0000       289.03772       98902.758       14591.941       2.7617500      0.62600000      0.17625000       341.94800       4.3175132       1.3996788
       1375.0000       289.00054       98925.993       14546.131       1.5855000     -0.32150000      0.64575000       341.98700       1.9041059       1.1723021
       1380.0000       288.98693       98928.419       14525.986       1.8280000      -1.9022500     -0.11175000       341.93000       3.7956925      0.92035892
       1385.0000       289.01142       98925.120       14548.730       3.2750000      -1.7365000     -0.25575000       341.48100       4.9834427      0.93960676
       1391.0000       288.99052       98926.661       14542.995       2.1002500     -0.74975000      0.72975000       341.84200       5.1805828      0.99929581
       1396.0000       288.95285       98917.642       14531.562       2.7517500    -0.025750000      0.83775000       341.84200     -0.83731643      0.75430893
       1401.0000       288.93275       98920.052       14514.601       3.1715000      -2.0065000    -0.052750000       341.54300       3.7900714      0.77448803
       1406.0000       288.90587       98936.412       14496.296       4.2045000      -2.0855000      -1.1477500       341.61800       7.4563467       1.3079065
       1411.0000       288.87613       98938.740       14465.157       3.0910000      -3.3365000     0.048500000       341.60400       4.9168964       1.1527385
       1416.0000       288.85478       98937.654       14417.523       3.2422500      -1.5170000     -0.36075000       341.89400      -1.3065579      0.97733219
       1421.0000       288.83529       98933.048       14386.827       4.0655000      -2.0645000     -0.50550000       341.66500     0.032563668      0.68662509
       1426.0000       288.78787       98917.886       14344.699       2.6737500      -1.6215000      0.47325000       341.44600       7.4646359       1.1519704
       1431.0000       288.79576       98918.363       14334.015       3.9487500      -2.3357500      0.16600000       341.37200       6.3437604       1.1086023
       1436.0000       288.83738       98924.444       14342.753       4.3460000      -2.5090000     -0.64250000       341.45900       5.0495078      0.78872114
       1441.0000       288.87651       98926.298       14353.068       3.4740000      -2.4807500     -0.27225000       341.56100       6.2709756       1.5502548
       1446.0000       288.94081       98939.288       14363.238       3.1412500      -1.9022500    -0.041500000       341.51100      -2.1201076       1.0886071
       1451.0000       288.99082       98935.141       14417.271       2.1005000    -0.061750000      0.68900000       341.83700       5.9689997       1.0242874
       1456.0000       289.05824       98912.775       14512.830       2.4067500     -0.57550000      0.44000000       341.84000       12.055536      0.98203203
       1461.0000       289.07074       98913.196       14558.354       3.0337500      -1.3417500      0.31975000       341.60000       7.2397545       1.2301408
       1466.0000       289.07648       98917.647       14641.783       2.8232500     -0.24225000      0.26675000       341.82800       4.0130013      0.82006064
       1471.0000       289.02918       98922.493       14636.623       3.1537500      -1.1662500     0.093750010       341.68700       7.0634391       1.2516588
       1476.0000       288.88775       98944.916       14527.499       3.4032500      -1.7087500     0.095000010       341.64100       3.2371542       1.0399531
       1482.0000       288.90541       98922.037       14577.511       2.1652500     -0.92675010      0.15675000       341.81400       5.9649546       1.2022331
       1487.0000       288.89413       98917.379       14581.699       5.1590000      -2.8137500     -0.16050000       341.37000       3.3956226      0.92744855
       1492.0000       288.92564       98918.294       14621.276       3.3955000      -2.9422500      0.30850000       341.56000       7.0128198      0.78184308
       1497.0000       288.95655       98917.883       14642.680       3.5327500      -1.0215000      0.28800000       341.89600       6.1595239       1.5557771
       1502.0000       288.91488       98940.300       14547.232       3.9787500      -3.7392500     -0.87900010       341.33600       1.2765169       1.0946782
       1507.0000       288.93068       98945.273       14545.428       3.4257500      -2.2687500      0.12450000       341.52600       4.7212266       1.1433689
       1512.0000       288.98336       98940.401       14591.449       3.8677500      -3.2555000     -0.75150000       341.22600       4.2197715      0.97323578
       1517.0000       289.11152       98918.874       14708.469       3.7220000      -1.9192500     -0.48975000       341.52200       4.1893217       1.0916840
       1522.0000       289.13930       98917.286       14750.530       2.1825000      -2.0997500      0.19675000       341.78900       7.5308136      0.90572821
       1527.0000       289.16178       98912.199       14826.645       2.6320000      -2.0335000      0.37650000       341.70000       8.4120872       1.0979487
       1532.0000       289.10024       98933.109       14774.501       2.4800000     -0.49900000      0.46300000       341.76600       4.6777431       1.4179013
       1537.0000       289.08721       98938.971       14776.292       1.2412500     -0.40550000      0.92050000       341.99600       5.2001570      0.90859478
       1542.0000       289.14512       98931.392       14853.750       2.3215000     -0.15800000       1.2065000       342.07800       3.3520972       1.2402989
       1547.0000       289.15622       98926.693       14875.020       3.7232500     -0.61325000      0.30700000       341.57200       7.1559960       1.3187993
       1552.0000       289.15504       98919.521       14880.166       2.3445000      -1.3255000      0.49525000       341.99100       4.8900578       1.0741833
       1557.0000       289.15715       98900.850       14889.498       1.7507500      -1.2945000      0.43350000       341.77400       3.5916973       1.0795053
       1562.0000       289.14536       98904.891       14876.912       3.3880000      -1.3650000      0.44075000       341.61400       3.8578099       1.1312109
       1567.0000       289.09383       98920.388       14812.395       1.2530000     -0.81675000      0.54700010       342.11800      -19.550372       1.5952163
       1573.0000       289.11414       98937.203       14843.802       3.0522500     -0.11200000     -0.30250000       341.57800       4.1306695       1.3829011
       1578.0000       289.10300       98939.413       14822.235       3.1887500      0.43025000      0.34200000       341.90500       6.3437953      0.99525726
       1583.0000       289.06601       98916.907       14768.430       2.5970000     -0.93225000      0.54225000       342.21600       4.7042305       1.0833101
       1588.0000       289.04637       98912.599       14721.015       4.0120000   -0.0015000000     0.065000010       341.54600       1.7437676      0.95812651
       1593.0000       289.00985       98912.179       14633.852       4.4182500     -0.64500000     -0.54200010       341.36400       3.1217165      0.80970172
       1598.0000       288.99115       98913.718       14567.334       2.9937500     -0.61325000   -0.0070000000       341.42300       2.9417740      0.83539831
       1603.0000       289.01499       98936.584       14528.134       3.2847500     -0.50625000    -0.060000000       341.85800       5.4332571       1.2421335
       1608.0000       289.00384       98939.670       14470.808       3.8145000     -0.39750000      0.58525000       341.81100       5.8020827       1.0107929
       1613.0000       288.96603       98925.679       14375.918       3.5037500      -1.9552500       1.2685000       341.50100       3.2024137      0.93682705
       1618.0000       288.94595       98919.555       14332.003       4.8695000     0.026000000     -0.24650000       341.72900       2.8555350      0.98480375
       1623.0000       288.90943       98898.524       14311.265       4.4095000      -1.6807500    -0.013000000       341.70000       4.6715460      0.99248911
       1628.0000       288.89027       98895.344       14294.571       3.0005000      -1.2795000    -0.089500000       341.45200       3.0317519      0.87450284
       1633.0000       288.92852       98918.191       14351.952       3.7970000      -1.0385000     -0.23875000       341.60600       9.4553245       1.1724140
       1638.0000       288.90624       98922.782       14340.902       3.2127500     -0.46250000     -0.50550000       341.86700       6.1636113       1.3989608
       1643.0000       288.81904       98927.931       14267.749       3.6607500      -1.0275000     0.063000000       341.77600       8.2200069       1.1301836
       1648.0000       288.79047       98928.223       14230.697       4.5380000     0.012500000      0.10000000       341.80400       8.2034901       1.4145233
       1653.0000       288.75420       98905.746       14178.965       2.2762500     -0.26650000     -0.43000000       341.51000       5.3669424       1.1418651
       1658.0000       288.73660       98901.524       14134.379       3.3265000       1.2610000   -0.0020000000       341.89800       8.9973169       1.1579633
       1664.0000       288.79528       98911.232       14108.269       7.2912500      0.72375010     -0.60700010       341.45700       6.7861317       1.0126409
       1669.0000       288.81172       98917.077       14091.234       7.2117510      -1.2750000     -0.56900000       341.22700       6.6807874       1.0401461
       1674.0000       288.78742       98936.791       14047.973       6.6897500      0.18575000     -0.32300000       341.48700       2.5113495       1.2513420
       1679.0000       288.80123       98939.501       14051.612       3.7845000      -2.1212500      0.42400000       341.83600       8.1486746       2.4913087
       1684.0000       288.85123       98928.418       14106.192       5.7220000      -1.1137500      0.10200000       341.46600       9.1586009       1.4293478
       1689.0000       288.85763       98924.102       14136.974       4.0432500      -1.1180000    -0.057000000       341.52100       6.2507471       1.0341936
       1694.0000       288.88501       98907.720       14221.917       6.4957500      -1.0132500     -0.26650000       341.37200       3.6241413       1.0807245
       1699.0000       288.85357       98907.062       14216.920       5.9667500      -1.4925000     0.099500010       341.39600       4.1326774      0.90216953
       1704.0000       288.71712       98923.134       14133.090       4.3765000      -1.4865000     -0.33400000       341.43900       7.0971490       1.1454095
       1709.0000       288.67447       98927.865       14094.326       4.6595000      -1.8332500      -1.0152500       341.23800       3.6319107       1.0378171
       1714.0000       288.63540       98938.764       14004.438       6.6582500      -2.8940000     -0.81550000       341.23700       3.2891303       1.0849673
       1719.0000       288.63611       98937.594       13970.878       4.2817500      -1.4217500     -0.40850000       341.25700     -0.51765379       1.1201634
       1724.0000       288.74668       98915.697       14013.367       4.5220000      -2.2137500     -0.29950000       341.37200       4.2443240       1.5746270
       1729.0000       288.76930       98912.336       14010.007       4.3730000      -1.9650000      0.15825000       341.41700       3.1983769       1.2020915
       1734.0000       288.75782       98912.952       13995.854       3.5297500      -1.1675000      0.57600000       341.56800       5.7444135      0.92679668
       1739.0000       288.75373       98914.170       13987.513       4.0665000      -2.2975000      0.69125000       341.53100       4.4772037       1.1267493
       1744.0000       288.70548       98928.789       13970.560       2.2465000     -0.82300000     -0.26150000       341.52400       5.4956745       1.1648882
       1749.0000       288.68923       98933.725       13953.426       2.9540000     -0.94875000       1.2090000       341.75200       6.2789930       1.1943934
       1755.0000       288.68899       98933.655       13924.202       3.6990000     -0.16425000     -0.41075000       341.61600       7.2337185       1.2371308
       1760.0000       288.70518       98928.831       13931.476       2.6117500      0.26350000      0.38375000       341.81800       4.4565597      0.74582615
       1765.0000       288.74257       98913.293       13952.225       3.4470000     -0.52650000     -0.11400000       341.41300       2.3175844      0.82800592
       1770.0000       288.76243       98913.832       13969.312       3.5220000     -0.23075000      0.13850000       341.67900       4.0910079      0.90252645
       1775.0000       288.81059       98917.369       14033.499       4.5442500     -0.61925010     -0.42500000       341.52700       6.3090757      0.77107972
       1780.0000       288.80841       98921.192       14037.183       5.9115000     -0.40550000      0.37100000       341.44300       9.0541022       1.4544708
       1785.0000       288.74707       98944.527       13980.344       5.3362500     -0.52500000     -0.68000000       341.34000       4.5991294       1.2559018
       1790.0000       288.74321       98943.354       13982.545       3.5800000     -0.94675000      0.67925010       341.81900       5.4055784       1.4421760
       1795.0000       288.74312       98920.317       13984.151       4.9327500       1.8842500      0.41025000       341.40200       7.5213128       1.0886624
       1800.0000       288.74929       98917.247       14002.926       4.3355000      0.62875000      0.23275000       341.48900       4.4105689      0.96104637
       1805.0000       288.81082       98912.339       14093.644       4.6390000      0.39575000     -0.10050000       341.57200       5.9215934       1.0770042
       1810.0000       288.80885       98914.450       14096.336       4.8190000      -2.5400000      0.14650000       341.48700       3.3515123      0.97986316
       1815.0000       288.74694       98934.377       14038.171       4.3720000     -0.49125000     -0.91700010       341.19200       6.9246920      0.94710554
       1820.0000       288.74315       98940.452       14024.489       4.5442500      -2.3052500      0.12200000       341.47500       5.4183016       1.2322734
       1825.0000       288.74219       98944.830       13977.466       5.4677500      -1.3602500     -0.35075000       341.47100       7.7858796       1.1653937
       1830.0000       288.74876       98939.556       13975.358       4.7152500     -0.73975000      0.68825000       341.71900       5.1780526      0.86043957
       1835.0000       288.79913       98920.419       14034.983       3.4772500      -1.7270000      0.43375000       341.50600       5.1863035       1.1293436
       1840.0000       288.81317       98917.421       14044.441       4.0477500     -0.72875010    -0.019750000       341.42500       4.1723109      0.86305899
       1846.0000       288.78240       98912.124       14016.915       4.6587500      0.39575000      0.50375000       341.45700       8.2934109       1.0627488
       1851.0000       288.81975       98915.443       14057.661       4.6975000      -2.0412500      0.18675000       341.80600       2.4924910       1.0137256
       1856.0000       288.89207       98935.772       14117.282       2.6905000      0.20650000     0.069250000       341.67400       6.0637733       1.3992224
       1861.0000       288.93165       98941.063       14170.239       4.2065000     -0.17175000     -0.28975000       341.60400       8.9694320       1.6828783
       1866.0000       289.02403       98944.104       14294.568       4.0635000     -0.92050000     -0.19700000       341.74200       8.3661169       1.4395764
       1871.0000       289.00960       98937.759       14313.462       2.5437500      -2.0185000      0.54700010       341.72800      -4.3284932       1.0964715
       1876.0000       288.90053       98921.511       14259.576       3.7612500      -1.4342500      0.16475000       341.92700       3.7090990       1.0767559
       1881.0000       288.87907       98915.382       14251.286       4.2572500      -1.9292500     -0.49225000       341.28800       3.8033145      0.90442796
       1886.0000       288.84884       98901.252       14237.909       3.1075000      -1.0000000     -0.15825000       341.91500       7.3940912       1.1537611
       1891.0000       288.82696       98904.332       14186.639       3.2125000      -1.8152500      0.79975000       341.67200       4.3026552       1.1035783
       1896.0000       288.84747       98925.634       14126.983       4.9442500      -1.1520000      0.23000000       341.65600       5.3206681       1.3576961
       1901.0000       288.85756       98930.976       14078.730       4.4367500     -0.68675010     0.031000000       341.69000       5.5701239       1.0909923
       1906.0000       288.83355       98938.426       13972.955       3.2447500      0.42200000     -0.55300000       341.92300       6.7248517       1.0353483
       1911.0000       288.86052       98936.062       13952.198       5.5327500     -0.52125000       1.0047500       341.61000       4.4418606       1.0286460
       1916.0000       288.94803       98919.067       13995.212       6.3465000     -0.11675000     -0.54275000       341.49700       4.6870054       1.0463352
       1921.0000       288.97913       98917.738       14014.412       3.7967500      -2.1795000   -0.0040000000       341.48600       2.4258423      0.81767738
       1926.0000       289.00286       98918.078       14053.432       5.0965000     -0.63125000      0.84700010       341.41900       4.5649889      0.86427548
       1932.0000       289.00000       98931.886       14074.503       4.8057500      0.17075000     -0.25850000       341.60600       9.8745547       1.9939193
       1937.0000       289.00000       98937.360       14108.458       3.9825000      0.92250000      0.37850000       341.57300       7.7859085       1.1674746
       1942.0000       288.99976       98938.681       14163.096       3.7197500     -0.44100000      0.31200000       341.57300       5.8636621       1.1881422
       1947.0000       288.99965       98936.972       14205.958       4.0082500     -0.74775000      0.14925000       341.64900       1.0729223       1.0308462
       1952.0000       289.01471       98925.891       14264.230       4.8512500      -1.3100000     -0.27375000       341.30200       1.5335842       1.1489114
       1957.0000       289.00587       98919.829       14307.125       5.8280000     -0.46525000      0.13325000       341.47100       5.0823401      0.84795132
       1962.0000       288.98468       98914.960       14338.308       4.5175000      -1.3385000     -0.83525000       341.23500       2.0934822       1.0784260
       1967.0000       288.94475       98907.129       14355.812       3.7955000     -0.39350000      0.20025000       341.47900       2.0542393      0.94760339
       1972.0000       288.94607       98911.841       14363.583       3.7315000      0.15125000     0.040500000       341.62800       5.9289623       1.1641130
       1977.0000       288.95056       98925.228       14371.507       3.9475000      -1.4155000    -0.037500000       341.72700       4.9399661       1.0066846
       1982.0000       288.93983       98941.744       14278.156       3.0625000      -2.2467500      0.73125000       341.67200      -1.6925666      0.85482387
       1987.0000       288.94973       98944.793       14243.815       2.8177500      -1.4730000     -0.14350000       341.70300      -3.6112063       1.1586514
       1992.0000       288.94463       98928.142       14213.912       3.7460000      -1.2237500     -0.18625000       341.85900       7.0373241      0.98132032
       1997.0000       288.94324       98920.166       14195.805       2.8382500     -0.69550000      0.44600000       341.95200      0.94632994       1.2003712
       2002.0000       288.95415       98912.176       14202.799       4.2900000      -1.6485000    -0.034750000       341.57600       7.0046289       1.1485275
       2007.0000       289.01982       98895.182       14295.045       4.6110000      -1.2017500      0.45150000       341.54800       4.9279797      0.86505895
       2012.0000       288.98528       98900.389       14237.782       4.2540000      -1.1707500     -0.52075000       341.44300       3.4300753       1.0152525
       2017.0000       288.90004       98920.242       14126.218       2.0925000      -2.7665000      0.90725000       341.63700       5.5545332      0.99879332
       2023.0000       288.80460       98937.738       13938.573       3.0157500      -2.6137500     -0.10400000       341.54200       11.711230       1.6720155
       2028.0000       288.77777       98944.134       13846.787       1.2602500      -1.2747500      0.39350000       341.87700       3.9393375       1.1149532
       2033.0000       288.83421       98941.119       13810.911       4.0720000      -2.8380000     -0.11575000       341.35300       6.5776319      0.88724165
       2038.0000       288.85401       98935.746       13784.153       2.4562500      -1.7517500       1.3845000       341.68500       8.4337028       1.2249714
       2043.0000       288.89029       98916.691       13798.401       4.4872500      -5.2867500      0.32650000       341.53000       5.7054498       1.0768659
       2048.0000       288.90896       98912.185       13808.503       2.6797500      -3.4335000      0.20400000       341.42800       1.0808560      0.90923924
       2053.0000       288.88529       98911.627       13817.332       4.4282500      -4.5345000      0.72925000       341.38100       2.1359492      0.78713435
       2058.0000       288.89659       98913.161       13855.877       5.3252500      -5.0742500     -0.38950000       341.38200      0.40216455       1.0322969
       2063.0000       288.93406       98932.062       13917.897       2.7185000      -1.2342500      0.17800000       341.81800       5.2775278       1.0858226
       2068.0000       288.95423       98938.686       13981.408       3.2927500      -2.0200000      0.59225000       341.75700       3.7304394      0.95249539
       2073.0000       288.97589       98940.072       14085.725       4.1107500      0.20100000      0.34000000       341.60800       3.7799545       1.3788162
       2078.0000       289.00595       98936.626       14161.807       4.1230000      -2.0600000     -0.79900000       341.28700       3.8365437      0.92707726
       2083.0000       289.03393       98919.697       14240.100       2.7020000     -0.95975010      0.34825000       341.73800       12.788536       1.8563431
       2088.0000       289.05357       98913.021       14282.951       3.5450000      -1.2677500     0.024750000       341.75500       3.5787222      0.88173247
       2093.0000       289.10568       98902.162       14313.967       2.4412500      -1.0070000     -0.16475000       341.65600      -1.7173818       1.2879686
       2098.0000       289.11317       98902.038       14306.937       4.3630000      -2.3110000     -0.36800000       341.68100       6.3910504       1.0549413
       2103.0000       289.05201       98919.386       14220.826       2.6130000      -3.1160000  -0.00075000000       341.68300       6.8303392      0.99710026
       2108.0000       289.04336       98927.259       14186.896       4.7957500      -2.6342500     -0.26775000       341.89800       3.9088806       1.3723472
       2114.0000       289.04373       98940.070       14144.562       3.8717500      -2.2012500     0.070250000       341.48300       9.8133752       1.2143229
       2119.0000       289.04761       98943.601       14124.471       3.4600000      -2.1307500     -0.14750000       341.45700       5.1852034      0.92286673
       2124.0000       289.10802       98940.339       14159.373       1.8422500      -1.7250000       1.3315000       342.05700       4.0844953       1.0468815
       2129.0000       289.11025       98934.230       14149.512       3.5135000      -1.8285000     0.059000000       341.58500       5.9565738       1.0461710
       2134.0000       289.03636       98914.155       14076.898       3.5395000      -1.8762500      0.56925000       341.74300       4.3637077       1.1635828
       2139.0000       289.04385       98911.965       14088.649       3.4602500      -2.1192500     -0.31800000       341.60300       6.2953250       1.3516033
       2144.0000       289.10575       98916.541       14154.713       3.2160000     -0.64625000      0.62475000       341.97100       8.3699763       1.9023712
       2149.0000       289.10179       98919.647       14175.035       3.7452500      -2.6250000      0.27425000       341.70900     -0.60444451       4.9482055
       2154.0000       289.12590       98938.083       14255.885       4.6067500      -2.2110000     -0.70100000       341.53600       5.1256370      0.94936308
       2159.0000       289.10477       98944.658       14258.400       5.0087500      -2.2072500     -0.36775000       341.42200       9.0772926       1.0132202
       2164.0000       288.95799       98943.968       14142.758       3.0270000      -2.7370000      0.46150000       341.82200       4.4047451       1.1004366
       2169.0000       288.91834       98939.808       14109.819       1.6225000      -1.1802500      0.17750000       341.93700       6.2541741       1.0715637
       2174.0000       288.96861       98930.300       14116.459       1.8717500      -2.4037500      0.24375000       341.78000       3.4969650      0.94761757
       2179.0000       288.94494       98923.011       14084.971       4.2337500      -1.3290000      0.86400000       341.90100       3.5479003       1.0615757
       2184.0000       288.93437       98904.202       14095.187       2.3207500      -2.0792500     0.093500000       341.67200       2.9145148      0.89001810
       2189.0000       288.89644       98901.644       14037.885       4.8875000      -2.6572500     -0.51175000       341.50300       2.8527663      0.99561359
       2194.0000       288.76028       98910.877       13889.723       4.4925000      -2.0962500     -0.13775000       341.33300       7.4303066       1.0939345
       2199.0000       288.72169       98916.630       13804.562       4.3182500      -2.0870000     -0.20350000       341.37300       6.4505837       1.1561303
       2205.0000       288.74322       98935.474       13697.364       3.4570000      -2.9070000      0.23925000       341.58900       8.6537550       1.2202346
       2210.0000       288.74942       98939.997       13636.700       4.1327500     -0.67800000     -0.29225000       341.81800       3.7254228      0.90413935
       2215.0000       288.79971       98939.373       13602.814       4.2582500      -3.1592500    -0.060250000       341.66900       4.6309007       1.0686027
       2220.0000       288.81342       98933.915       13593.460       5.6330000      -3.0647500     -0.18825000       341.29800       4.3409160       1.0755993
