MIRICO/SHELL project - Processed LDS file generated on
Wed Jul 26 00:43:50 2017
Time stamp for record start
05/12/2017  13:22:59.0000
Nb of points in the record
         440
Beam position index
       3.0000000
Beam angle (degrees)
     -0.96000000
Open Path length (m)
       44.550000
****************** Temporal data record ************************
Elapsedtime_sec Temp_K Press_Pa Humidity_ppmv WindX_m/s WindY_m/s WindZ_m/s Speedofsound_m/s CH4vmr_ppmv CH4vmrerror_ppmv  
      0.00000000       289.03797       98906.156       13854.662       6.3832500      0.32925000      0.85725000       341.72200       2.0672404     0.017457827
       5.0000131       288.93192       98905.480       13779.839       6.1655000     -0.54350000     -0.28675000       341.63400       2.0297484     0.021455565
       10.000026       288.93756       98904.440       13786.358       4.5457500      -1.8687500      0.84200010       341.68500       2.0987730     0.020827518
       14.999999       288.98934       98904.952       13803.007       3.3550000      -1.8070000     -0.56300000       341.90400       1.9720159     0.017044554
       20.000012       289.01792       98905.900       13833.108       6.6342500      -3.3870000    -0.062750000       341.25500       2.0016323     0.013215910
       25.000025       289.10602       98904.392       13916.053       4.9702500      -3.2022500     -0.16375000       341.68300       2.0579318     0.022515978
       29.999998       289.12810       98905.242       13970.367       4.0855000      -3.1430000     -0.83700000       341.78100       1.9888190     0.010457886
       35.000011       289.08257       98910.713       13988.658       2.9750000      -1.3725000      0.47100000       342.04300       1.8347359     0.018660361
       40.000024       289.12051       98911.918       14080.842       2.6902500      -1.1027500      0.83975010       341.85900       1.9671151     0.011302500
       44.999997       289.21146       98910.141       14249.423       4.3055000      -1.4082500     -0.14575000       341.59000       2.0219382     0.026443738
       50.000010       289.21402       98910.082       14304.068       3.9400000      -2.8577500     -0.54425000       341.79000       1.9265742     0.014714028
       55.000024       289.19647       98911.314       14352.152       4.4860000     -0.74275000      0.26725000       341.42700       1.8728146     0.012384333
       60.000037       289.21644       98909.494       14365.155       2.6560000     -0.97900000     -0.61975000       341.72500       2.0200488     0.019448036
       65.000010       289.16797       98904.605       14275.106       5.7380000     -0.75675000      0.40950000       341.85200       1.9325137     0.019559782
       70.000023       289.22215       98904.391       14269.768       4.5887500      0.72200010      0.49975000       341.89800       2.0897755     0.023502798
       75.000036       289.39619       98905.540       14302.069       3.8992500      -1.2552500     -0.52775000       341.97800       2.0291209     0.015327394
       80.000009       289.45895       98904.579       14313.516       4.1550000     -0.13350000      0.46700000       341.93700       1.8943501    0.0094051166
       85.000022       289.52276       98905.102       14331.137       6.2950000      -1.6242500     -0.94275000       341.51100       2.0119848     0.015370277
       91.000029       289.43883       98909.286       14358.193       4.5142500     -0.63850000     -0.81325010       341.49700       2.0095083     0.019192355
       96.000002       289.39819       98906.567       14345.337       6.3980000      -2.8975000      0.29350000       341.22700       1.9883907     0.012580876
       101.00002       289.31460       98892.299       14288.280       5.5412500      -2.7337500     -0.63000010       341.48600       2.0282047     0.017544111
       106.00003       289.28116       98892.797       14246.038       6.0942500      -1.1850000      0.39750000       342.19100       1.9820802     0.024404745
       111.00000       289.28459       98898.211       14197.246       4.9087500     -0.64275000     -0.51900010       342.13100       2.0468741     0.020886045
       116.00001       289.34952       98906.607       14115.668       5.9000000      -2.9290000     0.050250000       341.69500       1.9320341     0.019765869
       121.00003       289.36977       98903.514       14084.705       5.9362500      -1.1602500     0.073500000       341.91600       2.0665028     0.024239936
       126.00000       289.39467       98905.398       14075.520       3.5022500     -0.59675000       1.2055000       342.32000       2.0088714     0.022743249
       131.00001       289.44642       98910.340       14092.099       3.5587500     -0.80025010      0.78075000       342.46700       1.9140256     0.016352817
       136.00003       289.49546       98905.366       14112.166       7.8147500      -1.9002500    -0.068500000       341.88000       2.0001095     0.015468619
       141.00000       289.61611       98900.449       14143.101       5.8722500     -0.78925000      0.18400000       341.77600       1.9990091     0.013854685
       146.00001       289.66904       98905.451       14190.621       4.3457500      -2.1672500     -0.16100000       342.27300       1.8561974     0.015158620
       151.00003       289.63995       98910.330       14275.998       6.4075000      -2.3432500      0.74450000       342.34800       2.0106026     0.014949840
       156.00000       289.64977       98905.388       14327.466       6.1022500      -2.3272500      0.28625000       342.16400       1.9765800     0.016242186
       161.00001       289.65953       98900.459       14369.336       6.0062500      -3.4292500       1.0047500       342.36600       1.9504073     0.017238613
       166.00002       289.63701       98905.801       14416.612       3.9002500      -2.3330000     0.035000000       342.34400       1.9037155     0.018302163
       171.00000       289.67033       98910.840       14450.763       6.7757500      -2.4157500     -0.66150000       341.41100       2.0627879     0.018908756
       177.00001       289.76010       98904.463       14454.039       5.2057500     -0.99800000      0.65400000       342.47400       2.0257717     0.014443763
       182.00002       289.79655       98903.854       14545.577       7.8832500      -3.9882500     -0.39050000       341.39500       2.1331092     0.022158843
       187.00003       289.85784       98906.593       14603.451       3.4172500     -0.87575010      0.25425000       342.96900       2.0630515     0.018543743
       192.00000       289.94435       98896.729       14640.476       5.9365000      -1.6460000     -0.30175000       341.43400       1.8707345     0.017987717
       197.00002       290.01368       98892.263       14711.657       4.0002500      -2.8330000     -0.12650000       342.38300       1.8454852     0.021577473
       202.00003       290.12892       98902.726       14804.740       3.6470000      -2.6977500      0.29875000       342.45700       1.9260909     0.012331781
       207.00000       290.17462       98907.510       14865.200       6.7050000      -4.0777500     -0.64450000       342.16400       1.9434577     0.016696965
       212.00002       290.16981       98906.095       14961.886       3.7705000      -3.6985000      0.69750010       342.05300       1.9749581     0.017392870
       217.00003       290.15708       98905.066       15007.391       5.6412500     -0.66600000    -0.097500000       342.70000       2.0070680     0.013831141
       222.00000       290.07506       98905.712       14981.795       5.4812500      -2.4067500     -0.25425000       342.08900       1.8130116     0.021606044
       227.00002       290.03605       98905.523       14968.646       4.8327500      0.86850010      0.70475010       341.45600       2.0276694     0.016132173
       232.00003       290.00908       98899.794       14944.525       3.8412500     -0.40650000    -0.098000000       342.33900       2.0137374     0.015833437
       237.00000       289.99049       98899.043       14916.923       2.8115000      -1.7107500     0.025000000       342.53900       2.0567302     0.020966536
       242.00002       290.00005       98905.126       14868.599       7.3275000      -2.3065000     -0.39075000       341.66400       2.1281927     0.021992905
       247.00003       289.99993       98905.976       14841.296       7.4960000      -3.4580000     -0.23200000       341.93100       2.0689958     0.017391401
       252.00000       290.00063       98901.733       14801.212       6.2757500      -1.3065000       1.8257500       342.62500       1.9427456     0.013849376
       257.00001       290.00090       98905.063       14799.597       3.4065000      -1.3367500       1.2115000       342.84600       1.7966472     0.017142239
       262.00003       290.02825       98918.454       14878.352       7.5897500      -1.4665000     -0.55850010       341.92700       1.9875346     0.020959869
       268.00003       289.99818       98916.017       14875.783       7.3320000     -0.80700000   -0.0055000000       342.05200       1.9308643     0.013948579
       273.00001       289.93544       98902.881       14828.982       5.5270000      -2.7847500      -1.2960000       342.22700       2.1024940     0.026863351
       278.00002       289.88150       98904.469       14819.824       6.1400000      -1.4982500      0.14650000       342.17600       1.8680742     0.012553565
       283.00003       289.78478       98908.281       14767.208       5.1245000     -0.29000000     -0.15950000       342.65700       2.0209402     0.017941569
       288.00001       289.71909       98903.344       14754.687       6.5575000     -0.77825000    0.0017500000       342.21700       2.0057622     0.017355545
       293.00002       289.69447       98902.635       14860.660       5.4275000      -2.7877500      0.81275000       342.38800       2.1513448     0.023328733
       298.00003       289.63032       98907.642       14830.347       6.1370000      -1.0302500    -0.093750010       342.15100       2.0362556     0.013993258
       303.00001       289.52927       98905.997       14712.447       6.1552500     -0.44950000      0.24000000       342.03500       1.8063591     0.016725127
       308.00002       289.47282       98903.724       14631.688       4.7462500      0.63925000     -0.26000000       342.23200       1.9610551     0.014371867
       313.00003       289.38362       98914.963       14474.019       5.4952500     -0.52750000     -0.64400010       341.83800       1.9294346     0.013351002
       318.00001       289.37815       98918.499       14389.067       5.0800000      0.34775000      0.97675010       341.98300       1.8829460     0.018403286
       323.00002       289.45111       98903.075       14326.872       6.5430000     -0.39025000    -0.079250000       341.66800       2.0225462     0.018066115
       328.00003       289.51844       98903.040       14334.122       6.1882500     -0.95075010     -0.65800010       341.84500       2.0507924     0.024627165
       333.00000       289.64001       98921.439       14382.583       5.5927500     -0.80775000     -0.11975000       341.62500       2.0360777     0.018418167
       338.00002       289.73931       98923.044       14471.555       5.4835000      -1.3055000     -0.66425000       341.89800       1.9166585     0.014066644
       343.00003       289.89097       98914.040       14683.398       3.3522500     -0.96975000     -0.31525000       342.02500       1.8901961     0.010193603
       348.00000       289.93580       98915.410       14819.353       4.7507500     -0.84350000     0.045500000       342.27400       1.7678428     0.024969052
       353.00002       289.91365       98919.786       14977.733       4.3802500      -1.6687500     -0.62300000       341.97100       2.0026163     0.015858583
       359.00002       289.90219       98912.561       15072.016       5.1185000      -2.0457500     -0.45775000       341.95600       2.0043558     0.018090530
       364.00000       289.80137       98903.139       15096.600       5.1570000      -1.3155000      0.64500000       341.80600       1.7996057     0.016988076
       369.00001       289.77358       98905.315       15082.322       2.4345000      -1.1050000     -0.15875000       342.17900       2.1449550     0.020677274
       374.00002       289.79999       98907.292       14999.477       4.5362500      0.59050010     -0.16000000       342.02000       1.9828097     0.017117836
       379.00004       289.79999       98902.358       14930.976       3.7597500      -1.6637500      0.69450000       342.27700       1.9808339     0.020818782
       384.00001       289.77661       98905.792       14798.245       3.5917500     -0.87600000     -0.52575000       342.47100       1.9324884     0.012415596
       389.00002       289.80939       98907.422       14746.657       3.3265000       1.2090000      0.11950000       342.65600       1.8661635     0.011668076
       394.00004       289.87302       98894.578       14720.080       5.4010000    -0.074500000     -0.26250000       342.08300       2.0057735     0.025142049
       399.00001       289.92952       98892.041       14711.661       4.2445000     -0.44800000      0.50400000       342.95100       2.0128704     0.027212546
       404.00002       290.05342       98904.749       14775.594       5.9667500     -0.70300000     -0.42175000       342.09000       1.9538945     0.016569530
       409.00003       290.08515       98908.555       14773.642       3.6572500      -3.6377500     -0.47325000       342.58800       1.8687771     0.014682196
       414.00001       290.02409       98902.357       14720.193       3.9697500      -1.2712500       1.2757500       342.20000       1.9829223     0.014735590
       419.00002       290.06647       98906.223       14741.899       5.8905000      -1.1602500     -0.89475010       342.16400       2.1065532     0.019692573
       424.00003       290.10411       98922.153       14770.050       5.2432500      0.65550010      0.80900000       343.06900       1.9575795     0.015531060
       429.00001       290.18185       98922.775       14819.060       4.6897500     -0.40125000     -0.35250000       342.63400       1.9522996     0.012640420
       434.00002       290.36801       98914.280       14914.824       4.4230000      0.64350000    -0.047500000       342.36400       1.7339119     0.017137560
       439.00003       290.46553       98915.891       15027.150       3.8575000     -0.30475000     -0.20725000       341.67000       1.8987950     0.010563572
       444.00001       290.52789       98918.665       15125.154       6.0795000     0.099250000     -0.75775000       341.55100       2.0670377     0.019506346
       450.00001       290.60321       98910.711       15326.579       4.5872500     -0.46325000      0.11725000       341.65500       1.8846007     0.017070362
       455.00003       290.64094       98903.465       15603.663       5.1767500     -0.45550000     -0.15975000       341.99900       1.9488265     0.011585604
       460.00000       290.69101       98906.228       15763.358       4.6822500    -0.060000000     -0.26675000       341.96000       2.0166220     0.015292303
       465.00001       290.74906       98903.649       15934.898       3.7812500      0.20800000     -0.16225000       342.13900       2.0588205     0.020338776
       470.00003       290.78008       98904.267       15999.271       3.1805000     -0.31400000    -0.078750010       343.07300       1.6908712     0.018885327
       475.00000       290.78434       98922.930       15960.909       4.4127500       1.9385000    -0.028250000       342.83900       1.9629096     0.016786589
       480.00001       290.83335       98924.459       15946.200       2.2247500     0.086750000      0.91900000       343.63000       1.6840866     0.024118440
       485.00002       290.89185       98908.078       15872.813       2.9152500     -0.37100000      0.42900000       342.77400       1.9488084     0.015655299
       490.00000       290.93196       98909.640       15844.348       2.2115000     -0.88475010     -0.25825000       342.65500       2.0454934     0.016691699
       495.00001       291.00721       98924.178       15823.041       4.6290000      -1.6547500      0.42400000       343.04100       1.8298894     0.013111298
       500.00002       291.03000       98918.812       15803.302       4.0730000      -1.6222500     -0.22875000       343.02500       2.0107426     0.018591477
       505.00000       291.01798       98903.318       15811.208       1.7670000      -2.4195000      0.93450000       343.35800       1.8211876     0.014681193
       510.00001       290.98069       98904.961       15762.447       3.9782500      -1.3085000      0.24325000       342.99900       1.9869614     0.024079193
       515.00002       290.92623       98904.432       15700.843       5.0855000      -1.6762500     -0.54825000       343.25100       1.9600958     0.011922618
       520.00004       290.84958       98903.115       15607.709       3.3087500    -0.016500000      0.62375000       343.99300       1.9316503     0.012630368
       525.00001       290.70358       98915.298       15459.812       3.0782500     -0.35650000      0.34200000       343.55000       2.0005570     0.013776837
       530.00002       290.64070       98920.445       15352.606       3.3215000     -0.85900000     -0.37175000       342.84200       1.9768649     0.019087045
       535.00004       290.61204       98913.181       15254.447       4.3442500     -0.90375010     -0.54675000       342.99800       1.9489022     0.014362791
       541.00000       290.52430       98925.810       15040.940       4.7430000      -2.1060000      0.14875000       342.45500       1.7555700     0.014372486
       546.00002       290.49233       98932.331       14947.777       4.0950000      -1.7177500    -0.035250000       342.91300       1.7736911     0.011211299
       551.00003       290.44439       98930.306       14869.131       2.8947500     -0.34500000      0.20450000       343.06600       1.9753547     0.018555828
       556.00000       290.43062       98930.294       14839.298       3.0520000     -0.31400000   -0.0022500000       343.59700       1.9157055     0.014766922
       561.00001       290.45373       98930.254       14869.905       3.3362500     -0.73075000     0.091500010       342.20200       1.8420901     0.011730643
       566.00003       290.58871       98933.391       15035.329       6.1292510      -1.0280000     -0.59350000       342.24800       1.8919564     0.014061848
       571.00000       290.50962       98922.556       15048.273       4.7350000      -1.1747500     -0.16050000       341.97500       1.8475379     0.018298741
       576.00001       290.35555       98902.571       15042.559       3.9237500     -0.47775000      0.85650000       342.41700       1.9779840     0.014008065
       581.00003       290.20372       98910.457       14974.646       4.3220000     -0.47250000     -0.35425000       343.10500       1.7946694     0.014036503
       586.00000       290.07899       98905.532       14884.118       2.9812500     -0.10675000      0.46425000       343.16600       1.8226381     0.013690169
       591.00001       290.03939       98900.327       14755.934       3.2297500      -2.8332500      0.45650000       342.45000       1.8488243     0.013874187
       596.00003       289.99967       98905.305       14642.818       3.5017500     -0.64625000     -0.51175000       342.19100       1.9092675     0.016538721
       601.00000       289.89988       98905.838       14437.652       3.1572500      0.26975000      0.48525000       343.16300       1.8856021     0.013242310
       606.00001       289.87473       98903.482       14346.009       4.1185000      0.99400000      0.53675000       343.34000       1.9512991     0.015873206
       611.00003       289.89874       98904.807       14316.407       3.6542500      0.40125000      0.46875000       342.45500       2.0360057     0.021950876
       616.00000       289.99849       98924.410       14347.192       5.9802500      0.19575000     -0.22325000       341.91700       1.9912305     0.015055460
       621.00001       290.03903       98922.593       14389.170       3.4637500      -1.3032500      0.31400000       342.61300       1.9589317     0.017929784
       626.00002       290.11209       98902.436       14516.630       3.2667500      -1.3072500      0.78450010       342.22400       2.0672575     0.026217715
       632.00003       290.12871       98918.665       14602.001       4.5517500      -1.8522500      0.89250000       342.56300       2.0209035     0.015956420
       637.00000       290.10677       98917.290       14649.183       3.5082500     -0.44725000      0.54125010       343.13600       1.9244999     0.021534499
       642.00002       290.04630       98903.166       14690.686       2.5410000      0.55000000       1.1060000       342.78900       1.8148778     0.013328137
       647.00003       289.99558       98904.410       14713.168       2.6470000     -0.66600000      0.29000000       343.91600       2.1175103     0.025316636
       652.00000       289.90034       98906.048       14716.021       3.8965000      -1.5010000      0.91900000       343.58800       1.9057516     0.016797785
       657.00002       289.83152       98903.303       14691.146       1.8740000     -0.50550000      0.65675000       343.88700       1.8307524     0.013307221
       662.00003       289.80405       98915.057       14649.648       3.8950000      -2.6132500    -0.089750010       342.03200       1.7912579     0.017273344
       667.00000       289.74224       98918.497       14587.644       3.4805000     -0.45625000    -0.099500010       343.22500       1.7040474     0.016812786
       672.00002       289.65409       98898.880       14506.461       3.8412500      0.65675000      0.14300000       343.87700       1.7998504     0.010285466
       677.00003       289.58361       98896.541       14389.741       3.8690000      -1.4197500     -0.67950000       341.80700       1.9426331     0.015399730
       682.00000       289.45623       98917.737       14177.835       3.3985000      -1.7432500      0.96450010       342.92200       1.9501005     0.011671309
       687.00002       289.42209       98918.054       14072.697       2.4522500      0.16325000      0.36050000       343.28300       1.9670813     0.016718909
       692.00003       289.49183       98903.166       13990.128       4.2062500      -1.3402500      0.40225000       342.26500       3.4139552     0.015539415
       697.00000       289.50167       98904.391       13923.842       5.8995000      -1.3880000      -1.9545000       341.87400       4.9082233     0.018639486
       702.00001       289.54713       98906.081       13940.809       5.4660000       1.9422500     -0.86150000       341.68200       3.3044509     0.019399445
       707.00003       289.56436       98903.315       13949.819       5.7875000       1.0062500     -0.67525010       341.76700       5.5298805     0.019526707
       712.00000       289.49668       98913.601       13919.213       6.0455000      -2.7657500      0.82725010       342.37400       5.2626372     0.017306326
       717.00001       289.48936       98918.232       13952.491       6.4635000     -0.69150000    -0.025000000       341.93000       3.1398134     0.016382839
       723.00002       289.52577       98902.932       14069.807       4.7710000     -0.64000000     -0.28425000       342.52900       3.7115143     0.013160165
       728.00003       289.55952       98902.669       14168.872       3.1277500      -1.2297500       2.3680000       342.77300       3.4189143     0.015568573
       733.00001       289.62020       98923.942       14287.192       5.7032500      -2.5545000    -0.088750000       342.01200       2.4120058     0.018268611
       738.00002       289.66974       98922.705       14429.394       5.1457500      -1.7030000      0.66425000       341.96100       2.1654476     0.021790550
       743.00003       289.73260       98906.772       14631.077       4.3737500      -1.3672500     -0.41350000       341.75400       2.0434734     0.017406636
       748.00001       289.76877       98904.155       14758.519       6.2497500      -1.2377500      -1.0175000       342.01400       1.8830199     0.013931846
       753.00002       289.80756       98895.615       14934.518       2.1550000      -1.7072500      0.78900000       342.35800       1.9980079     0.022014866
       758.00003       289.81013       98892.084       14973.061       5.6132500      -2.4205000     -0.18375000       341.94100       1.8431466     0.017457347
       763.00001       289.78709       98904.861       14881.737       4.7352500      -2.1752500    -0.056250000       342.02800       1.8757087     0.010789054
       768.00002       289.73972       98907.723       14799.197       3.6797500    0.0087500000     -0.50750010       342.29300       1.8883420     0.015464112
       773.00003       289.61539       98896.990       14622.852       3.1845000    -0.028250000      0.13225000       342.18200       2.0674431     0.017610061
       778.00000       289.57350       98899.553       14496.720       5.1572500      0.70000000      0.12875000       342.07100       5.0792929     0.018311378
       783.00002       289.53545       98918.134       14342.069       5.0310000      0.38175000     -0.18600000       341.96900       5.8315203     0.014126534
       788.00003       289.53665       98917.342       14261.307       2.5840000      0.74300000      0.12800000       342.08300       7.7508748     0.022067677
       793.00000       289.61901       98903.419       14200.334       4.9217500     -0.74850000     -0.33475000       341.55500       4.1772532     0.015479502
       798.00002       289.66924       98905.151       14194.681       3.6012500      -1.3165000     -0.71200000       342.24000       3.3269114     0.014945128
       803.00003       289.73270       98904.617       14285.387       2.9687500      -1.4102500     0.035750000       342.50500       2.3258658     0.010338886
       809.00000       289.77513       98903.996       14347.070       6.4415000     -0.67575000     -0.22875000       341.73700       2.6085251     0.022466986
       814.00001       289.79949       98922.549       14413.569       7.4565010      -2.4682500     -0.31200000       341.43500       2.1809845     0.026500575
       819.00002       289.81355       98923.924       14481.848       5.9335000      -1.6265000      0.71725000       341.83300       2.0406184     0.024122784
       824.00004       289.81116       98901.746       14560.604       6.3125000      0.10525000     -0.67275010       341.47600       2.3339400     0.016299688
       829.00001       289.79499       98903.451       14600.674       3.5365000      -1.6917500      0.87200000       342.60200       1.9087522     0.015648584
       834.00002       289.74785       98923.929       14639.910       5.3702500      -3.7992500      0.10475000       341.91200       2.4669594     0.017258152
       839.00004       289.74455       98920.767       14660.143       5.8487500      -2.0440000      0.42050000       342.00000       1.8986548     0.011449530
       844.00001       289.74343       98911.306       14619.865       4.8095000      -1.1750000       1.1162500       342.33500       1.9019764     0.014502323
       849.00002       289.74976       98909.763       14634.616       5.6215000     -0.23725000     -0.41500000       341.61000       2.0040692     0.011986278
       854.00003       289.83272       98893.239       14713.128       3.2397500     -0.99125000     0.064750000       342.36700       2.3853343     0.022650782
       859.00001       289.79803       98890.917       14692.653       2.9047500      0.10500000      0.71400000       342.62700       2.9361874     0.012122588
       864.00002       289.68472       98913.484       14644.553       4.5737500    -0.078250010     -0.28325000       341.76800       1.9909972     0.021423272
       869.00003       289.60907       98912.683       14577.748       6.0160000      -1.6232500    -0.055750000       342.04200       2.0103548     0.019405637
       874.00001       289.46032       98892.039       14422.748       3.3575000      -2.2962500    -0.035750000       342.25500       2.1192239     0.017454978
       879.00002       289.39906       98894.041       14331.269       5.8887500      -2.2307500     -0.77300010       341.71900       1.9278420     0.015454671
       884.00003       289.41301       98903.534       14278.334       6.5432500      -2.7005000     -0.59550010       342.12900       1.9618254     0.017997697
       889.00001       289.38321       98906.244       14190.887       3.9787500      -2.5397500     -0.38100000       342.23300       2.0163840     0.021182380
       894.00002       289.34770       98922.367       14059.245       4.1040000      0.91875000       1.0872500       342.30900       1.8230975     0.012299531
       900.00003       289.34502       98923.059       14016.202       4.5947500     -0.27225000   -0.0087500000       342.37300       2.3228250     0.014257358
       905.00000       289.34322       98901.273       13997.193       4.8852500     -0.33375000      0.18750000       342.20500       3.6785489     0.024394310
       910.00001       289.35169       98904.405       14021.946       5.2442500     -0.21975000     0.038750000       341.84900       2.2905961     0.020240833
       915.00003       289.40301       98923.879       14138.074       4.2382500      0.33400000      0.56025000       342.10000       2.4530743     0.017390566
       920.00000       289.41423       98919.594       14199.736       3.0902500     -0.44925000      0.47150000       342.11600       5.2204641     0.018544925
       925.00001       289.38096       98911.568       14238.889       2.9077500      0.63150000      0.96750000       342.50900       5.2192660     0.022929656
       930.00003       289.41894       98909.588       14324.922       4.6227500      0.51800000     -0.52850000       341.59100       5.4737364     0.021156328
       935.00000       289.50072       98890.813       14446.995       3.4940000      0.11700000     -0.69300000       341.75000       3.1733242     0.015604054
       940.00001       289.52192       98893.824       14520.765       6.8440000     0.078250010     -0.81225000       341.40700       5.9092729     0.022774026
       945.00002       289.55071       98925.220       14601.938       4.6205000     -0.39350000     0.020500000       342.05400       5.2549436     0.018577861
       950.00000       289.57182       98923.344       14665.425       5.0285000      0.42575000     -0.23475000       341.75700       3.9957541     0.016841133
       955.00001       289.54319       98902.548       14695.194       4.8787500      -1.1260000     0.047500000       341.62300       3.8232593     0.027896577
       960.00002       289.55196       98906.104       14722.160       5.6750000      -1.0867500     -0.24775000       341.19400       2.2327015     0.016224793
       965.00004       289.61196       98909.106       14772.071       5.1035000     -0.64475010     -0.20700000       341.79000       2.8027433     0.023212667
       970.00001       289.60476       98909.803       14754.817       5.4692500      -1.3600000      0.11775000       341.35900       2.1239720     0.017963677
       975.00002       289.54602       98929.641       14666.108       5.6805010      0.41850000     -0.52075000       341.60000       2.2837652     0.025281853
       980.00004       289.54493       98928.447       14643.984       4.1750000    -0.050750000      0.18275000       341.84800       2.3366879     0.015810714
       985.00001       289.53466       98901.563       14606.888       5.0652500      -1.9877500     -0.40900000       341.61400       5.6557639     0.029566368
       991.00002       289.61536       98918.480       14644.875       4.3912500      -1.0667500     0.056500000       342.09800       2.5195459     0.013120024
       996.00003       289.65725       98921.859       14679.971       5.2877500     -0.63025000     -0.51800000       341.63800       2.5475001     0.013608093
       1001.0000       289.70032       98922.352       14728.856       6.0282500      -1.4030000      0.20925000       341.77100       3.8920412     0.017895677
       1006.0000       289.71269       98926.541       14769.040       3.8057500      -1.3592500      0.63600000       342.04900       2.2981597     0.010940790
       1011.0000       289.70049       98928.259       14807.877       3.4950000      -1.2227500      0.12075000       342.23400       5.8661723     0.022884165
       1016.0000       289.65710       98917.414       14860.508       5.7997500     -0.62175010     -0.34750000       341.24300       3.2812676     0.013706176
       1021.0000       289.61503       98920.970       14859.551       5.2390000      0.23675000     -0.12350000       341.57300       2.1951248     0.016458828
       1026.0000       289.53758       98939.687       14822.504       4.6760000      -1.1205000     -0.37650000       341.75000       5.4553113     0.018956503
       1031.0000       289.58986       98913.020       14870.104       5.6325000      -1.0020000     -0.20200000       341.61900       3.4792624     0.017591488
       1036.0000       289.56274       98907.340       14859.509       2.7100000     -0.97950010      0.61825000       342.42100       3.2481188     0.029244989
       1041.0000       289.52405       98904.183       14896.485       4.3047500      -1.4330000     -0.57675000       342.09600       2.6292277     0.028936220
       1046.0000       289.46758       98901.487       14847.256       3.2170000     -0.43350000      0.61450000       342.46400       3.6073213     0.014864340
       1051.0000       289.30022       98927.299       14657.484       3.0030000      -1.0185000     -0.17450000       342.24200       7.9115673     0.019543664
       1056.0000       289.18857       98935.295       14510.572       2.5897500     -0.52100000    -0.091000010       342.46200       5.3254381     0.029416716
       1061.0000       289.10151       98933.444       14359.175       2.3737500     -0.37725000       1.2050000       342.37400       3.8977421     0.033293621
       1066.0000       289.03189       98913.481       14163.817       2.8137500     -0.71400000     0.099500010       342.53200       2.4827674     0.018775026
       1071.0000       289.01579       98913.827       14060.781       3.1932500      -2.6227500     -0.27225000       341.95800       1.8977008     0.013052238
       1076.0000       289.04979       98913.389       14000.221       1.9172500     -0.57150000     -0.83600000       342.13200       2.0078847     0.018062665
       1082.0000       289.04165       98931.619       13926.304       2.8082500      -1.2662500     -0.11200000       342.11000       1.7779806     0.020159737
       1087.0000       289.05158       98934.019       13916.920       2.7752500      -1.0270000      0.47925000       342.29500       1.9661122     0.017267879
       1092.0000       289.05814       98914.481       13969.714       2.2642500      -1.9762500     0.031750000       342.18200       1.9129384     0.015062256
       1097.0000       289.04827       98913.020       13993.607       2.7660000     -0.46525000      0.20000000       342.34900       2.0615459     0.022331904
       1102.0000       289.04256       98916.362       14038.006       4.3622500      -1.3187500      0.58175000       341.14100       1.9858780     0.011426540
       1107.0000       289.05250       98918.759       14095.834       4.1170000     -0.39100000      0.66025000       341.93300       2.4224580     0.022325889
       1112.0000       289.05799       98940.378       14152.570       4.7367500      -1.2872500      0.67400000       341.99800       2.1803509     0.013063602
       1117.0000       289.04762       98944.441       14193.486       2.6530000      -2.3955000      0.35425000       342.04500       1.9902647     0.013444272
       1122.0000       289.05597       98925.743       14266.495       2.4772500      -1.4042500     -0.11900000       341.93500       1.8219718     0.012272697
       1127.0000       289.05488       98923.118       14310.388       4.2605000      -1.0162500    -0.069750000       341.82100       2.0587723     0.015953149
       1132.0000       288.99561       98923.448       14289.517       3.3942500     -0.73350010      0.63650000       341.74600       1.9153850     0.024675864
       1137.0000       288.98858       98923.882       14309.761       3.8170000      -1.9887500     -0.15100000       342.02400       1.8506227     0.018297466
       1142.0000       289.06273       98937.306       14396.793       2.6387500      -1.6842500      0.77550010       341.92400       2.0416891     0.016528289
       1147.0000       289.06040       98942.896       14398.294       4.2430000      -3.8537500     -0.66300000       341.30900       1.7408606     0.027286180
       1152.0000       289.03873       98940.371       14372.541       3.5655000      -3.1505000     -0.17950000       341.28700       2.0957562     0.023276794
       1157.0000       289.00604       98940.392       14325.864       3.7975000      -4.0737500    -0.037000000       341.41100       1.9921873     0.017596981
       1162.0000       288.87251       98944.419       14172.757       3.2937500      -2.0772500     -0.43075000       341.59700       1.8056548     0.016580508
       1167.0000       288.82579       98940.974       14088.168       2.9065000      -2.4742500      0.78425000       341.91300       2.0622996     0.022027891
       1173.0000       288.83086       98926.255       14007.975       4.7417500     -0.12725000    -0.015750000       341.71200       2.0052611     0.014427489
       1178.0000       288.84818       98922.982       13982.126       3.5967500      -2.2915000     -0.65525000       341.78500       1.9379708     0.019563949
       1183.0000       288.94581       98918.208       14023.758       2.2862500     -0.72300000      0.16525000       341.99600       1.9931800     0.011407838
       1188.0000       288.96787       98918.735       14022.239       4.5420000      -1.5042500      0.46250000       341.54200       1.9223967     0.015195000
       1193.0000       288.93131       98938.407       13999.712       1.5302500      -1.8825000      0.68975000       341.94300       2.0455455     0.018183041
       1198.0000       288.95526       98937.997       14035.709       5.2845000      -2.3335000     -0.40575000       341.61100       1.7962899     0.017529629
       1203.0000       288.99461       98923.345       14092.137       3.5067500     -0.76775000      0.59575000       341.83600       1.9842408     0.018992470
       1208.0000       289.00472       98918.408       14138.454       4.4317500      -2.3820000     -0.84100000       341.60100       2.0264370     0.021561272
       1213.0000       289.03890       98902.230       14230.569       3.8965000      -2.1055000      0.82325010       341.82400       1.9687119     0.016798580
       1218.0000       289.06515       98901.782       14311.720       4.0467500      -2.9517500     -0.13475000       341.48100       1.9454756     0.015639497
       1223.0000       289.03014       98926.261       14351.693       4.0425000      -3.1105000     -0.47825000       341.50000       1.8228382     0.026276693
       1228.0000       289.04766       98928.251       14427.787       4.2145000     -0.92500010     -0.14825000       341.74400       2.1113795     0.020183561
       1233.0000       289.15908       98919.730       14602.638       3.8332500     -0.93525000    -0.026750000       341.67000       1.8452165     0.016041306
       1238.0000       289.16807       98920.696       14651.287       1.4662500      -1.6000000      0.28950000       341.79800       1.9173427     0.010775569
       1243.0000       289.10760       98911.955       14618.216       2.4127500      -1.4350000      0.48000000       341.93000       1.9596335     0.011762386
       1248.0000       289.09760       98912.831       14621.259       3.7242500     -0.62575000     -0.53800000       341.73800       1.9122484     0.015407927
       1253.0000       289.03670       98937.785       14551.956       4.5350000      -2.6710000     -0.46575000       341.60200       1.7966748     0.016924901
       1258.0000       289.03808       98939.292       14538.887       3.1070000      -2.1045000     0.082000000       341.66300       1.9714492     0.011283210
       1264.0000       289.14252       98919.709       14601.292       2.8200000      -1.9737500    -0.036250000       341.62700       1.8385814     0.017631940
       1269.0000       289.17664       98917.872       14616.052       2.5250000      -2.2697500      0.35675000       341.72700       2.0084286     0.017288972
       1274.0000       289.19897       98911.969       14604.370       3.3262500      -1.5840000     -0.53800000       341.62500       1.9566016     0.013502243
       1279.0000       289.21254       98914.019       14618.796       2.0742500     -0.31350000      0.54750000       341.96400       1.7562517     0.016155935
       1284.0000       289.20031       98938.829       14634.265       3.3467500     -0.55750000      0.23425000       341.62600       1.8475192     0.021008445
       1289.0000       289.20043       98938.273       14659.138       2.9562500      -1.2625000     -0.21850000       341.63900       2.1132995     0.013919521
       1294.0000       289.21130       98920.205       14721.945       3.5385000      -1.1875000      0.36450000       341.77000       3.0107577     0.013030738
       1299.0000       289.19508       98918.557       14728.636       3.9235000     0.084000010      0.59525000       341.82200       3.3019912     0.010898813
       1304.0000       289.15722       98912.253       14700.900       4.7167500      -1.4637500     -0.63750000       341.76400       2.2540246     0.020305394
       1309.0000       289.13717       98914.371       14695.461       2.9245000     -0.30475000    -0.084000010       341.40100       2.3168546     0.012269911
       1314.0000       289.10062       98937.742       14665.681       4.1467500      -2.7260000      0.17875000       341.85100       1.8915235     0.013939635
       1319.0000       289.08703       98938.941       14657.011       4.9397500      -1.9030000     -0.52150010       341.45100       2.0431096     0.023587789
       1324.0000       289.10003       98925.314       14674.164       4.1792500      -1.1800000      0.58250000       341.63900       1.9619758     0.013998936
       1329.0000       289.09997       98923.907       14681.799       6.5312500      -1.9115000     0.044000000       341.59600       1.9446224     0.014400216
       1334.0000       289.09980       98917.427       14682.208       3.0037500     -0.76300000      0.62850000       341.76300       1.9845427     0.016087940
       1339.0000       289.09968       98918.936       14689.979       2.4970000     -0.71350000     -0.33375000       341.67500       2.1652734     0.013759440
       1344.0000       289.09998       98938.864       14715.059       2.1362500      -1.3212500     -0.27050000       341.80700       3.1219144     0.022586566
       1349.0000       289.10004       98937.199       14718.241       2.2377500      -1.3160000     -0.33500000       341.52900       2.3129078     0.015079047
       1355.0000       289.10937       98921.045       14722.042       2.7977500      -2.0772500     -0.12300000       341.63500       1.8673261     0.016460289
       1360.0000       289.09087       98916.033       14689.241       3.8785000      -2.0905000     0.064250000       341.68200       1.8556056     0.017117809
       1365.0000       289.05364       98900.982       14617.382       2.9320000      -1.8945000     0.022750000       341.52600       2.0199941     0.016670308
       1370.0000       289.03374       98904.063       14586.151       3.6802500     -0.31750000     -0.19300000       341.52100       1.9878718     0.010183467
       1375.0000       288.99682       98926.875       14540.713       1.7892500     -0.62300000      0.99125000       341.93100       2.0528978     0.027253177
       1380.0000       288.98572       98928.309       14524.039       2.2282500      -1.1647500      0.11150000       341.87000       1.9642851     0.019046267
       1385.0000       289.00918       98925.502       14548.228       3.0300000      -2.0345000     -0.27275000       341.37000       1.9957687     0.013876244
       1390.0000       288.99052       98926.661       14542.995       2.4632500     -0.61525010      0.91450010       341.90000       1.9267616    0.0096491095
       1395.0000       288.95285       98917.642       14531.562       1.9732500      -2.0172500     -0.33625000       341.65600       2.0673423     0.018652511
       1400.0000       288.93275       98920.052       14514.601       3.5650000      -1.7627500      0.18375000       341.59600       1.9885104     0.022862109
       1405.0000       288.90587       98936.412       14496.296       3.3255000      -1.8340000     -0.51250000       341.59000       2.0240041     0.017725015
       1410.0000       288.87613       98938.740       14465.157       2.9517500      -2.4362500      0.50800000       341.81800       1.8688506     0.013664540
       1415.0000       288.85478       98937.654       14417.523       3.6117500      -1.7840000     -0.57200000       341.74700       1.9676873    0.0094343964
       1420.0000       288.83529       98933.048       14386.827       4.0420000      -2.0055000     -0.50275000       341.48300       1.9432593     0.012961099
       1425.0000       288.78787       98917.886       14344.699       3.5400000      -1.6205000     -0.60825000       341.50400       1.9403484     0.011547132
       1430.0000       288.79576       98918.363       14334.015       4.0682500      -2.0465000     -0.58275000       341.34100       1.9513555     0.015098870
       1435.0000       288.83738       98924.444       14342.753       3.5290000      -2.1217500     -0.36625000       341.47200       2.0094111     0.021769210
       1441.0000       288.90052       98937.175       14337.714       2.8712500      -1.8010000     -0.80650000       341.57400       1.8634936     0.020229933
       1446.0000       288.95084       98939.062       14372.072       2.7815000      -1.6280000     -0.32025000       341.56400       1.9560219     0.012767727
       1451.0000       289.03053       98916.868       14470.829       1.2867500     -0.16900000      0.50775000       341.75000       2.1043072     0.015886868
       1456.0000       289.06270       98912.367       14522.559       3.6475000     -0.81450000    0.0062500000       341.74400       1.8914712     0.014718320
       1461.0000       289.07029       98914.018       14566.515       2.5850000      -1.3712500     -0.45550000       341.72500       2.2964305     0.022735063
       1466.0000       289.07008       98918.302       14644.451       1.8862500     -0.23525000      0.40300000       341.81700       2.1083845     0.014033727
       1471.0000       289.01513       98923.932       14630.047       3.2875000      -1.5192500     -0.41825000       341.52900       1.7397799     0.026196158
       1476.0000       288.88202       98945.121       14527.248       2.9055000      -1.4750000      0.11300000       341.71100       1.9284666    0.0097113326
       1481.0000       288.90541       98922.037       14577.511      0.83125000      -1.4215000      0.74450000       341.92800       1.8261074     0.021016154
       1486.0000       288.89413       98917.379       14581.699       2.9007500      -3.9070000      0.29150000       341.54100       1.8262431     0.017538695
       1491.0000       288.92564       98918.294       14621.276       3.8760000      -2.3182500      0.42650000       341.62700       1.7151614     0.032050459
       1496.0000       288.95655       98917.883       14642.680       3.3460000      -1.3120000      0.18600000       341.95700       1.9761400     0.013665715
       1501.0000       288.91488       98940.300       14547.232       4.6505000      -3.5850000      0.51850000       341.52100       1.8580999     0.017710679
       1506.0000       288.93068       98945.273       14545.428       4.3550000      -3.4375000     -0.21750000       341.30500       1.8803551     0.014573489
       1511.0000       288.98336       98940.401       14591.449       3.6835000      -1.3402500      0.13525000       341.58700       1.8910916     0.011457871
       1516.0000       289.11152       98918.874       14708.469       3.8090000      -1.6947500     -0.60650000       341.40500       1.9598669     0.014227628
       1521.0000       289.13930       98917.286       14750.530       1.4002500      -1.4642500      0.92900000       341.84700       1.8327774     0.013763811
       1526.0000       289.16178       98912.199       14826.645       2.9442500      -2.0527500     -0.29600000       341.61200       1.8374501     0.022665370
       1532.0000       289.09561       98934.890       14772.838       1.9512500      -1.5442500     0.014750000       341.82000       1.9673920     0.018349040
       1537.0000       289.08763       98939.230       14779.684       1.9077500    -0.059250000      0.18250000       341.90800       1.8506787     0.017788548
       1542.0000       289.14832       98930.650       14859.292       1.2735000    -0.066750000     -0.12350000       342.01200       1.9304304     0.011343609
       1547.0000       289.15697       98925.456       14877.340       3.2675000     -0.59350000      0.49925000       341.69900       2.2064090     0.022414862
       1552.0000       289.15729       98903.968       14886.164       2.6067500      -1.2252500      0.33450000       341.99000       1.9148258     0.018796629
       1557.0000       289.15582       98900.952       14888.469       2.9055000      -1.3175000      0.84200010       341.90500       1.9085367     0.016311742
       1562.0000       289.10999       98916.347       14831.590       3.5897500      -1.5665000      0.36500000       341.76900       2.0445776     0.015273447
       1567.0000       289.09104       98921.400       14809.043       1.6265000     -0.94575010      0.36300000       342.10500       1.8016405     0.017675161
       1572.0000       289.11414       98937.203       14843.802       2.3215000     -0.39175000      0.13675000       341.52700       1.9504859     0.012513486
       1577.0000       289.10300       98939.413       14822.235       1.8110000      0.30250000      0.54750000       341.86700       1.9183423     0.018434644
       1582.0000       289.06601       98916.907       14768.430       2.6340000      -1.5517500    -0.092750010       341.75100       5.0489299     0.016544289
       1587.0000       289.04637       98912.599       14721.015       3.1732500      0.15975000    -0.028250000       341.95700       3.6698566     0.020058508
       1592.0000       289.00985       98912.179       14633.852       4.1870000     -0.21900000     -0.70800000       341.50300       2.4732862     0.014149007
       1597.0000       288.99115       98913.718       14567.334       3.3940000      -1.6837500    -0.098500010       341.62000       6.2893605     0.020047508
       1602.0000       289.01499       98936.584       14528.134       3.6517500     -0.82125000   -0.0095000010       341.92900       2.6799760     0.019128820
       1607.0000       289.00384       98939.670       14470.808       4.4952500      -1.5380000     -0.10775000       341.59200       2.4244472     0.018523623
       1612.0000       288.96603       98925.679       14375.918       2.7697500      0.28375000       1.2815000       341.53200       2.5479530     0.016909377
       1617.0000       288.94595       98919.555       14332.003       4.2932500     -0.43100000      0.28225000       341.77800       5.3820278     0.018506108
       1623.0000       288.90458       98897.079       14306.544       4.6182500      -1.1035000     0.012750000       341.75400       4.8792279     0.029819212
       1628.0000       288.88796       98895.922       14293.304       4.0940000      -1.2445000     -0.53725000       341.58600       4.2914391     0.016655742
       1633.0000       288.92603       98919.403       14352.082       3.3890000      -1.5752500     -0.36475000       341.38600       2.1783306     0.021148812
       1638.0000       288.89883       98923.261       14335.187       3.0417500      -1.0560000     -0.26075000       341.89000       1.8859232     0.014556891
       1643.0000       288.81237       98928.501       14260.306       4.1110000     -0.76550000     -0.47925000       341.61100       1.9715668     0.013174027
       1648.0000       288.78620       98927.515       14223.333       2.4765000     -0.61600010       1.3382500       342.17100       1.9827610     0.014322636
       1653.0000       288.74868       98904.302       14169.208       3.7525000      0.32175000      0.23300000       341.38600       2.5173641     0.036106759
       1658.0000       288.73609       98901.580       14126.714       4.6540000      0.83600000      0.53675000       341.45000       5.7485253     0.017640874
       1663.0000       288.79528       98911.232       14108.269       7.2047510    -0.080750000     -0.60525000       341.20600       6.4523699     0.020872001
       1668.0000       288.81172       98917.077       14091.234       6.7737500     -0.79950000     -0.30225000       341.21300       2.4617639     0.017101736
       1673.0000       288.78742       98936.791       14047.973       6.3420000      -1.0905000     -0.69450000       341.55400       2.2119613     0.014875181
       1678.0000       288.80123       98939.501       14051.612       3.0687500     -0.76425000      0.75850000       341.85900       2.2511956     0.030330931
       1683.0000       288.85123       98928.418       14106.192       4.6332500    -0.057250000      0.71175000       341.63500       2.4353160     0.027931556
       1688.0000       288.85763       98924.102       14136.974       4.9242500      -1.3162500     -0.23675000       341.47200       3.2215143     0.022473844
       1693.0000       288.88501       98907.720       14221.917       5.8282500     0.082500000    -0.014500000       341.51600       2.1482408     0.024123527
       1698.0000       288.85357       98907.062       14216.920       5.9637500      -1.3225000     -0.42825000       341.07700       2.2607063     0.013637744
       1703.0000       288.71712       98923.134       14133.090       4.6380000      0.20175000      0.11750000       341.47000       3.0109277     0.014399003
       1708.0000       288.67447       98927.865       14094.326       4.4427500      -1.5832500      0.64075010       341.67800       2.1704539     0.016113011
       1714.0000       288.63253       98939.135       13995.234       5.3850000      -3.2482500     -0.53675000       341.27500       2.4503916     0.013289689
       1719.0000       288.64077       98936.454       13967.894       4.5495000      -1.7440000     -0.20725000       341.39600       2.0875034     0.016484089
       1724.0000       288.75317       98914.631       14013.273       5.5682500      -2.1642500     0.085750010       341.36700       2.0338555     0.016610281
       1729.0000       288.77088       98912.255       14008.471       4.2567500      -2.4587500      0.40550000       341.49000       1.8936720     0.018374438
       1734.0000       288.75804       98912.886       13994.421       4.0585000      -2.0080000     -0.20225000       341.30000       1.8728912     0.024328519
       1739.0000       288.75136       98914.877       13985.492       3.9257500      -1.2005000     0.097500000       341.46100       2.1716057     0.021282459
       1744.0000       288.70123       98930.077       13967.100       2.7042500     -0.97700010      0.36250000       341.60900       1.9382773     0.014137002
       1749.0000       288.68748       98934.260       13950.048       1.7885000      -1.2717500      0.67600010       341.84100       1.9376495     0.014552377
       1754.0000       288.68899       98933.655       13924.202       3.3012500     -0.83100000     0.018500000       341.68100       1.9678922     0.012159369
       1759.0000       288.70518       98928.831       13931.476       2.1922500      0.27325000      0.49400000       341.80100       2.0618022     0.025176714
       1764.0000       288.74257       98913.293       13952.225       3.7515000     -0.73300000      0.75175010       341.61300       2.9786019     0.016721578
       1769.0000       288.76243       98913.832       13969.312       4.1097500      0.25975000      0.41050000       341.73200       5.8184908     0.019776649
       1774.0000       288.81059       98917.369       14033.499       4.6742500      -1.1645000     -0.11300000       341.22700       6.2016850     0.025831887
       1779.0000       288.80841       98921.192       14037.183       5.6165000    -0.094500010     -0.16300000       341.47900       4.4236955     0.015474436
       1784.0000       288.74707       98944.527       13980.344       5.3382500     -0.35575000      0.34175000       341.44900       3.3996748     0.018627352
       1789.0000       288.74321       98943.354       13982.545       4.7815000      0.64825000     -0.15700000       341.60500       2.7801672     0.019467108
       1794.0000       288.74312       98920.317       13984.151       5.6232500     -0.57800000      0.35275000       341.60700       3.1005581     0.016020879
       1799.0000       288.74929       98917.247       14002.926       5.6640000     -0.48425000      0.41750000       341.38900       5.1121594     0.020843768
       1805.0000       288.81245       98912.261       14096.864       4.2017500      -1.7185000      0.20275000       341.73500       4.2118327     0.019476059
       1810.0000       288.80542       98915.622       14092.851       5.3930000      -3.0515000      0.27675000       341.32300       3.1901552     0.019804520
       1815.0000       288.74521       98935.889       14035.405       4.7962500     -0.23675000      0.88825010       341.56900       1.9702357     0.022425913
       1820.0000       288.74387       98941.222       14021.797       4.8720000      -2.1890000     -0.83500000       341.45000       2.0565617     0.018251736
       1825.0000       288.74248       98944.283       13975.119       4.6457500      -2.2032500     -0.99150000       341.28300       2.0814106     0.020493606
       1830.0000       288.75162       98937.739       13977.825       3.6987500     -0.58550000     -0.18825000       341.65300       1.9608577     0.016099734
       1835.0000       288.80294       98919.518       14037.827       4.4772500      -1.8902500      0.18500000       341.35300       1.9248035     0.014994500
       1840.0000       288.81448       98917.274       14044.905       3.8247500      0.26150000      0.48125000       341.51700       1.9325455     0.013068860
       1845.0000       288.78240       98912.124       14016.915       6.1150000     -0.23075000     -0.72400000       341.55900       1.9837797     0.013393272
       1850.0000       288.81975       98915.443       14057.661       6.6932500      -1.6965000     -0.77975000       341.39900       2.9857713     0.036751857
       1855.0000       288.89207       98935.772       14117.282       3.5442500      0.42300000      0.40075000       341.82600       3.4136031     0.014622704
       1860.0000       288.93165       98941.063       14170.239       4.2917500      0.34700000     0.063500000       341.68800       8.6461555     0.019448033
       1865.0000       289.02403       98944.104       14294.568       4.2165000      0.44650000     -0.41075000       341.60800       4.8045921     0.013697451
       1870.0000       289.00960       98937.759       14313.462       3.2100000      -2.0812500      0.67625000       341.59400       7.6053025     0.020109363
       1875.0000       288.90053       98921.511       14259.576       2.7365000      -1.0632500      0.26100000       341.91800       4.3751232     0.031407130
       1880.0000       288.87907       98915.382       14251.286       4.4670000      -1.9682500    -0.088000010       341.48200       2.9186675     0.018818291
       1885.0000       288.84884       98901.252       14237.909       2.7107500     -0.61800000     0.069250000       342.01800       1.9895936     0.015609072
       1890.0000       288.82696       98904.332       14186.639       3.4345000      -2.0567500      0.42800000       341.46500       2.0661066     0.012655235
       1896.0000       288.84947       98926.912       14117.807       5.0987500     -0.71750000   -0.0090000010       341.53000       2.0321799     0.015939692
       1901.0000       288.82968       98935.877       14016.042       3.9700000      -1.4032500      0.21200000       341.69500       2.0202475     0.015679455
       1906.0000       288.83698       98938.446       13965.865       3.8945000      0.70350000     -0.14700000       341.72800       1.9264545     0.016791393
       1911.0000       288.86886       98934.849       13952.454       5.5980000     0.099000010     -0.19250000       341.66200       3.0666654     0.021880946
       1916.0000       288.95523       98918.502       13998.302       4.6902500      -1.4060000     -0.25475000       341.78800       6.4836818     0.017776132
       1921.0000       288.98387       98917.920       14019.381       4.3777500      -2.9245000      0.44275000       341.55800       4.8769195     0.020438855
       1926.0000       289.00613       98918.509       14058.950       4.5960000      -1.4320000     -0.75875000       341.48100       3.0306232     0.020141147
       1931.0000       289.00000       98931.886       14074.503       5.3447500      0.48925000      0.30950000       341.72000       2.1695473     0.014364949
       1936.0000       289.00000       98937.360       14108.458       5.2317500      0.63225000      0.53200000       341.41300       4.1762686     0.014169782
       1941.0000       288.99976       98938.681       14163.096       5.4295000      0.24075000     -0.24525000       341.51500       7.1331977     0.032721368
       1946.0000       288.99965       98936.972       14205.958       3.8965000     -0.63375000    0.0065000000       341.67500       3.9546954     0.021705628
       1951.0000       289.01471       98925.891       14264.230       4.8535000      -1.2785000     -0.50275000       341.27800       2.9402432     0.026344208
       1956.0000       289.00587       98919.829       14307.125       6.0985000     -0.66775010     -0.21625000       341.31100       3.6489981     0.014538500
       1961.0000       288.98468       98914.960       14338.308       4.2490000      -1.0570000      0.27225000       341.36900       2.9735148     0.025854829
       1966.0000       288.94475       98907.129       14355.812       3.5542500     -0.77275000    -0.057750000       341.52200       2.1469375     0.015108856
       1971.0000       288.94607       98911.841       14363.583       4.2485000     -0.67475000     -0.45650000       341.37300       2.0618496     0.014735561
       1976.0000       288.95056       98925.228       14371.507       3.9690000     -0.62900000    0.0052500000       341.41400       2.1698098     0.015785755
       1981.0000       288.93983       98941.744       14278.156       3.2817500     -0.86100010    0.0020000000       341.75400       2.2735766     0.014642374
       1987.0000       288.95173       98944.340       14238.858       2.6200000      -1.2915000    -0.090250010       341.83200       2.0165419     0.014404489
       1992.0000       288.94337       98926.548       14208.281       2.4715000      -1.0947500     -0.16875000       341.73400       2.3496387     0.020142007
       1997.0000       288.94444       98918.569       14195.195       3.3592500      -1.0562500     -0.21975000       341.95100       2.1289543     0.030441277
       2002.0000       289.02009       98898.288       14302.500       4.4662500      -1.8847500     -0.58125000       341.54200       2.1494025     0.012983325
       2007.0000       289.01596       98895.415       14287.845       4.4075000      0.23625000     -0.65750000       341.45900       2.0568071     0.013400424
       2012.0000       288.93205       98913.842       14186.618       4.3057500      -1.6902500      0.53500000       341.69400       2.0194415     0.010679190
       2017.0000       288.89204       98921.842       14109.057       3.6605000      -3.5637500     0.029000000       341.61800       1.9355687     0.018819618
       2022.0000       288.80460       98937.738       13938.573       4.1450000      -1.8585000     -0.29675000       341.69300       2.0268720     0.016890491
       2027.0000       288.77777       98944.134       13846.787       1.0702500     -0.93875000      0.74550000       341.83800       2.1208584     0.022039336
       2032.0000       288.83421       98941.119       13810.911       4.5805000      -4.1917500     0.044500000       341.45500       1.9853955     0.016895282
       2037.0000       288.85401       98935.746       13784.153       3.3440000      -3.6555000      0.34700000       341.79700       2.0530265     0.019254012
       2042.0000       288.89029       98916.691       13798.401       4.1497500      -3.7590000     -0.60150000       341.37000       1.9196691     0.031621463
       2047.0000       288.90896       98912.185       13808.503       2.4990000      -2.9767500      0.94350000       341.65400       2.1147553     0.029121454
       2052.0000       288.88529       98911.627       13817.332       4.9427500      -3.8277500     -0.27050000       341.47800       2.0122844     0.017492376
       2057.0000       288.89659       98913.161       13855.877       5.6957500      -3.6265000     -0.63275000       341.61800       1.9807102     0.013268206
       2062.0000       288.93406       98932.062       13917.897       4.3575000      -2.0420000     -0.15825000       341.53200       1.9550667     0.013790263
       2067.0000       288.95423       98938.686       13981.408       3.3117500      -3.1897500    -0.017250000       341.49600       2.0892066     0.022855481
       2073.0000       288.98190       98939.783       14101.856       4.5382500     -0.76925000      0.29325000       341.80200       2.0487777     0.015212138
       2078.0000       289.01195       98935.337       14175.649       3.8510000      -2.5930000     -0.28025000       341.32400       2.0901035     0.023092590
       2083.0000       289.03787       98918.166       14250.543       3.8960000     -0.91450010     0.081750010       341.44700       2.1688988     0.020448687
       2088.0000       289.05750       98911.980       14288.707       3.5607500      -1.2057500    -0.028000000       341.79500       2.0297537     0.013071184
       2093.0000       289.10919       98901.528       14315.106       2.9587500     -0.27375000     -0.19175000       341.99000       1.8628491     0.014578866
       2098.0000       289.11165       98902.927       14301.716       2.3670000      -2.7232500      0.15175000       342.08300       1.9114377     0.012597730
       2103.0000       289.04927       98921.060       14213.284       2.7905000      -4.5270000     -0.98825000       341.40900       2.0826956     0.034522051
       2108.0000       289.04313       98928.685       14181.241       4.5787500      -2.5732500      0.59725000       341.78600       2.1750860     0.018852927
       2113.0000       289.04373       98940.070       14144.562       4.2177500      -1.7060000      0.15575000       341.53800       1.9927664     0.017434554
       2118.0000       289.04761       98943.601       14124.471       3.8485000      -2.2380000      0.38525000       341.48900       1.9901473     0.018139015
       2123.0000       289.10802       98940.339       14159.373       3.6435000      -1.1400000      0.62700000       341.78700       1.9697155     0.012799543
       2128.0000       289.11025       98934.230       14149.512       3.0895000      -1.0240000    -0.057000000       341.71000       1.9949112     0.011057826
       2133.0000       289.03636       98914.155       14076.898       3.1715000      -2.1795000     0.042000000       341.76900       1.9712919     0.017424213
       2138.0000       289.04385       98911.965       14088.649       2.9057500      -2.1287500     -0.47075000       341.45900       1.9644437     0.017233725
       2143.0000       289.10575       98916.541       14154.713       3.6787500      -2.3802500      0.65425000       341.54700       2.0705916     0.018575457
       2148.0000       289.10179       98919.647       14175.035       2.7350000      -1.7245000       1.2375000       341.71000       1.9010244     0.012446880
       2153.0000       289.12590       98938.083       14255.885       5.1832500      0.59375000     -0.21075000       341.78100       2.0644514     0.018687670
       2158.0000       289.10477       98944.658       14258.400       4.7630000      -1.2065000      0.11650000       341.34500       1.8545451     0.015493353
       2164.0000       288.94699       98943.437       14134.620       3.0860000      -2.7420000      0.48225000       341.82900       1.9936726     0.014382749
       2169.0000       288.91501       98938.525       14105.552       2.2482500      -2.7042500     0.011250000       341.67300       1.9464630     0.016400219
       2174.0000       288.96485       98928.941       14110.491       2.4530000      -1.6335000      0.52575000       341.96800       1.8963149     0.016936961
       2179.0000       288.93873       98921.405       14078.181       4.3585000      -1.8725000     -0.42025000       341.89900       2.0941534     0.025425172
       2184.0000       288.92886       98903.086       14086.829       4.2545000     -0.12125000      0.54175000       341.99700       1.9817501     0.012668732
       2189.0000       288.88575       98902.040       14021.788       4.1730000      -2.2645000     -0.26825000       341.58100       1.9220966     0.015071136
       2194.0000       288.74955       98911.824       13871.823       4.9460000      -2.2420000     -0.25475000       341.30000       1.9568862     0.011270686
       2199.0000       288.71848       98918.085       13788.815       4.9145000      -1.7702500      0.14000000       341.42600       1.7972994     0.019845358
       2204.0000       288.74322       98935.474       13697.364       2.2965000      -3.1752500      0.32225000       341.74400       1.9190097     0.014628290
       2209.0000       288.74942       98939.997       13636.700       3.9820000     -0.96975000     0.087000000       341.79300       1.9773089     0.017198206
       2214.0000       288.79971       98939.373       13602.814       3.5972500      -1.0595000     -0.58150010       341.44900       2.1731291     0.023637623
       2219.0000       288.81342       98933.915       13593.460       5.7250000      -1.6705000     0.092250000       341.35300       1.9598797     0.019571965
