MIRICO/SHELL project - Processed LDS file generated on
Wed Jul 26 01:19:48 2017
Time stamp for record start
05/12/2017  13:22:59.0000
Nb of points in the record
         440
Beam position index
       5.0000000
Beam angle (degrees)
       8.5250000
Open Path length (m)
       83.010000
****************** Temporal data record ************************
Elapsedtime_sec Temp_K Press_Pa Humidity_ppmv WindX_m/s WindY_m/s WindZ_m/s Speedofsound_m/s CH4vmr_ppmv CH4vmrerror_ppmv  
      0.00000000       289.03797       98906.156       13854.662       5.8610000      -2.5252500     -0.24000000       341.38700       1.8500318     0.013371808
       5.0000131       288.93192       98905.480       13779.839       4.4247500      -2.1390000     -0.42850000       341.73400       1.9092590     0.010621823
       11.000021       288.97532       98904.194       13793.500       4.6677500      -1.4050000    -0.078000000       341.66300       1.9851021    0.0097726360
       16.000034       288.99407       98905.142       13807.405       6.7252500     -0.76625000      -1.2692500       341.12100       1.9444262    0.0095935004
       21.000007       289.02512       98906.090       13841.565       6.4677500      -3.4617500     -0.39950000       341.13800       2.0741557     0.016150989
       26.000020       289.11244       98904.459       13927.189       4.8750000      -2.2862500      0.19325000       341.69400       1.9458977    0.0088280955
       31.000033       289.12950       98905.566       13980.813       3.8017500      -1.9497500     -0.60225000       341.71600       1.9390385    0.0098716304
       36.000006       289.08815       98911.053       14004.471       3.7727500      -1.1107500      0.97875010       341.92700       1.9086431     0.010304732
       41.000019       289.19085       98910.189       14181.352       4.3872500      -1.5382500      0.72300000       341.93300       1.9306623     0.010106064
       46.000032       289.21404       98910.129       14263.069       5.4447500      0.35600000      0.28300000       341.76000       1.9224163     0.010315844
       51.000005       289.18053       98911.890       14315.067       4.6700000      -1.8295000      0.19375000       341.67400       1.8858981     0.011451945
       56.000018       289.20046       98911.047       14357.722       3.4817500      0.10825000      0.18125000       341.70600       1.9362988    0.0092481722
       61.000031       289.16006       98905.656       14293.477       6.0335000      -2.0550000     -0.53900000       341.41600       1.8861453     0.011860153
       66.000004       289.17487       98904.464       14272.480       6.7950010      0.51000010     -0.85525010       341.20000       1.9471160    0.0093257304
       71.000017       289.23889       98904.494       14271.022       4.1732500      -1.1897500      0.55000000       341.61000       1.9181625    0.0095911608
       76.000030       289.41070       98905.347       14304.287       4.1422500      -1.1477500       1.0962500       341.67200       1.9272438     0.010094068
       81.000003       289.46857       98904.388       14315.923       8.1212500      0.41400000      0.16375000       341.83700       2.0059916    0.0096881716
       86.000016       289.52382       98905.312       14332.601       5.3362500      -2.3420000       1.0467500       342.07100       1.8902441     0.012225106
       91.000029       289.43883       98909.286       14358.193       5.0332500     -0.78200010     -0.19500000       341.72900       1.9019440     0.014656961
       96.000002       289.39819       98906.567       14345.337       6.0027500      -1.8897500     -0.71025000       341.67700       1.9008195     0.016249289
       102.00001       289.30496       98892.005       14280.350       5.5270000      -1.0215000    -0.024000000       341.68200       1.9333927     0.011468583
       107.00002       289.27890       98893.486       14236.810       6.8992510     -0.68600000      0.23800000       341.94900       1.8724418     0.013243638
       112.00004       289.33356       98907.352       14154.312       6.6885000    -0.059000000     -0.29550000       341.24000       1.9518862     0.010206919
       117.00001       289.35355       98906.180       14107.932       5.1987500     -0.84675000    -0.065500010       342.02900       1.9432713     0.010441318
       122.00002       289.36221       98901.292       14082.099       5.7380000     -0.74050000      0.11950000       341.47300       1.9128260     0.011721232
       127.00004       289.40405       98906.426       14075.732       3.1860000     -0.64800000      0.78175000       342.53000       1.9149055     0.010279587
       132.00001       289.45527       98909.351       14095.219       2.8535000      -2.1930000      0.14500000       342.65900       1.9650855    0.0099329310
       137.00002       289.50670       98904.363       14117.521       8.2785010      -2.4420000     -0.10450000       341.24500       1.8815270     0.019402270
       142.00003       289.62965       98901.451       14151.643       7.4625010      -1.3372500      0.18825000       341.40400       1.9181863     0.011718902
       147.00001       289.67521       98906.450       14201.573       8.2115000      -4.0595000      -1.2377500       341.29300       1.8983682     0.010935680
       152.00002       289.64192       98909.341       14287.058       5.1567500      0.32075000      0.63050000       342.95400       1.8989715     0.012544163
       157.00003       289.65172       98904.401       14336.609       7.3232500      -2.9127500     -0.39550000       341.60700       1.9238939     0.011140924
       162.00001       289.62880       98901.710       14381.566       4.6112500     -0.53975000      0.30450000       342.56900       1.8672248     0.014376352
       167.00002       289.64162       98906.816       14424.300       6.7670000      -3.7857500     -0.20825000       340.97900       1.9031540     0.012411665
       172.00003       289.70969       98909.521       14416.042       5.7010000      -2.0625000      0.69550000       342.47400       1.9288925     0.015950054
       177.00001       289.76010       98904.463       14454.039       5.9312500      -2.0615000      0.46150000       342.34200       1.9370561     0.010832932
       182.00002       289.79655       98903.854       14545.577       5.7715000     -0.68350010      0.47050000       342.25900       1.9111539     0.016308318
       187.00003       289.85784       98906.593       14603.451       5.9640000      -1.1312500      0.49700000       342.52300       1.9387949     0.013177755
       193.00000       289.95821       98895.441       14653.962       4.4530000      -3.1087500     -0.12475000       342.62300       1.9477794     0.012696714
       198.00001       290.02754       98891.961       14727.023       3.6865000      -2.5355000      0.74025010       342.31300       1.8852994     0.017180301
       203.00003       290.14106       98903.883       14817.161       3.2310000      -1.6480000     0.075000000       342.61900       1.9002772     0.013841548
       208.00000       290.17926       98908.167       14876.792       6.1262500      -2.7910000     -0.51625000       342.29100       1.9201750     0.012798197
       213.00001       290.16926       98905.888       14973.934       4.4580000      -1.4417500     0.067500000       342.99400       1.8994775     0.016446272
       218.00002       290.15153       98904.862       15012.064       4.5080000     -0.54350000     -0.29350000       342.50200       1.8721461     0.016646398
       223.00000       290.06621       98905.772       14979.787       5.3025000      -1.2492500     0.010750000       342.03800       1.8638420     0.014734580
       228.00001       290.02981       98905.338       14965.088       4.0482500     -0.76550000     -0.68525000       342.28500       1.8788792     0.017091960
       233.00002       290.00437       98899.448       14939.459       4.0277500      -1.7750000     -0.24875000       342.74600       1.9238642     0.010740831
       238.00004       289.98826       98899.188       14910.721       4.6095000      -1.8295000     -0.68850000       342.05100       1.9064703     0.011290154
       243.00001       290.00003       98905.394       14862.533       4.2107500      -3.9165000      0.77200000       343.19900       1.8832208     0.012717406
       248.00002       289.99991       98905.997       14836.743       6.5712500      -3.3987500      0.18325000       341.48500       1.8806252     0.011810110
       253.00004       290.00068       98902.196       14798.892       7.4085000      -1.5200000      0.32950000       342.54700       1.9078037     0.013502863
       258.00001       290.00095       98906.032       14802.269       4.2087500      -2.0657500       1.7397500       342.95100       1.8364026     0.022021893
       263.00002       290.02573       98918.546       14880.494       7.9982500     -0.86575000     -0.43050000       341.99400       1.9604299     0.011254428
       268.00003       289.99818       98916.017       14875.783       6.4652500      -1.9107500       1.6230000       342.78900       1.8867031     0.021151307
       273.00001       289.93544       98902.881       14828.982       6.8890000      -1.7275000     -0.24100000       341.99500       1.8276105     0.017237317
       278.00002       289.88150       98904.469       14819.824       4.5855000     -0.93150000     -0.14075000       342.23900       1.9051698     0.018498874
       284.00003       289.77066       98907.292       14762.619       5.8710000      0.60975000      0.59075000       342.28300       1.9070526     0.010473969
       289.00000       289.70743       98902.359       14755.303       7.0800000     -0.98250010     -0.17825000       341.67900       1.8529468     0.022857754
       294.00001       289.68270       98903.645       14858.953       4.7610000      -1.7057500    -0.042750000       342.27200       1.9038572     0.021132957
       299.00003       289.61590       98908.630       14817.776       6.6177500      -1.0047500     -0.91975000       342.16300       1.9474104     0.011745301
       304.00000       289.51698       98905.344       14697.484       6.6435000      -1.5197500     -0.72050010       341.21600       1.9287991     0.011101829
       309.00001       289.46302       98903.566       14613.757       6.2887500     -0.53300010      0.59200000       341.88400       1.9431988     0.012766775
       314.00003       289.37849       98916.068       14454.296       4.8692500      0.48425000      0.58375000       342.00200       1.9009638     0.012318144
       319.00000       289.38312       98918.610       14376.143       6.1047500      0.72775010    -0.011250000       341.73400       1.9064047     0.012207958
       324.00001       289.46261       98902.576       14324.503       5.6577500      -1.7837500     -0.12175000       341.65200       1.8643402     0.012939204
       329.00003       289.53485       98903.772       14341.315       5.0960000      -1.2820000     -0.34300000       342.03300       1.8722208     0.016196981
       334.00000       289.65987       98922.153       14396.434       6.1547500      -1.4135000     -0.38025000       341.61200       1.8936829     0.017005328
       339.00001       289.75917       98922.775       14495.301       5.6812500     -0.77275000     -0.95375010       341.93600       1.8672066     0.025412946
       344.00003       289.90393       98914.217       14711.663       4.2702500      -1.2005000     0.098750000       342.13900       1.8644584     0.020074542
       349.00000       289.93878       98915.829       14844.892       4.8067500     -0.91125010     -0.37125000       342.24800       1.9233519     0.010120009
       354.00001       289.91425       98918.833       14998.081       4.3550000      -2.0637500     -0.53675000       341.66700       1.9133631     0.011176640
       359.00002       289.90219       98912.561       15072.016       5.8130000      -2.2465000      0.34825000       342.08400       1.9029864     0.011148706
       364.00000       289.80137       98903.139       15096.600       4.4550000      -2.9782500     -0.21775000       341.97900       1.8913715     0.015340531
       369.00001       289.77358       98905.315       15082.322       3.5362500     0.041000000      0.32625000       342.61300       1.8990627     0.013285110
       375.00002       289.79999       98906.304       14987.137       5.2692500     -0.42625000      0.23475000       341.89500       1.9272223     0.011713657
       380.00003       289.79999       98901.373       14915.236       3.1827500      -2.0247500      0.39275000       342.45700       1.9040915     0.021066139
       385.00000       289.78114       98906.330       14785.651       5.2342500     -0.62300000     -0.68750010       341.32200       1.8889859     0.016074469
       390.00002       289.81899       98907.431       14739.745       3.9662500      0.35800000      0.70875000       342.48500       1.9195601     0.017675556
       395.00003       289.88332       98893.672       14716.336       4.7360000    -0.030500000     0.028750000       341.98200       1.9275118    0.0092489760
       400.00000       289.94232       98892.132       14713.072       5.8252500      -2.1855000    -0.063750010       341.95400       1.9206349     0.010729332
       405.00002       290.06283       98905.711       14776.651       6.1355000     -0.15575000     -0.34150000       341.59600       1.9240047     0.010477641
       410.00003       290.08690       98909.016       14771.086       4.6952500      -3.0827500      0.37400000       342.39600       1.8482590     0.016731000
       415.00000       290.03060       98902.834       14722.715       1.9802500     -0.70025000      0.95175000       342.71700       1.8901103     0.020586544
       420.00002       290.07790       98907.440       14748.973       5.4440000       1.0560000     -0.49425000       342.19600       1.8916165     0.013324023
       425.00003       290.11671       98922.671       14777.773       5.8187500      0.83600000     -0.18700000       342.25900       1.8823367     0.012615920
       430.00000       290.20182       98922.309       14831.987       4.2627500     -0.65375000      0.65675000       342.48500       1.8274394     0.018061984
       435.00001       290.38947       98914.505       14935.817       4.7157500      0.52325000     0.085750010       341.58900       1.9129117     0.017043207
       440.00003       290.48209       98916.358       15051.834       6.4370000     -0.88225010     -0.30050000       341.60600       1.9751684    0.0091469140
       445.00000       290.54170       98917.592       15154.351       5.9012500     -0.30925000     -0.18975000       342.13200       1.9151095     0.015713145
       450.00001       290.60321       98910.711       15326.579       4.2650000      0.57525000     -0.59575000       341.86900       1.8767639     0.014310052
       455.00003       290.64094       98903.465       15603.663       6.2655000      -2.5672500     -0.19125000       341.52800       1.9362183    0.0089195182
       461.00003       290.71539       98905.804       15835.116       5.0385000     -0.65100000     -0.46125000       342.18700       1.8403556     0.018218697
       466.00001       290.75625       98903.478       15953.154       2.7575000      0.45525000     -0.61400000       342.03200       1.9367078    0.0096976103
       471.00002       290.78481       98904.833       16004.055       2.8282500     -0.34350000     0.051500000       343.08600       1.9339373     0.013779294
       476.00003       290.79312       98923.745       15960.086       3.2572500      -1.0677500      0.58350000       343.15700       1.9659052    0.0088455459
       481.00001       290.84468       98924.001       15940.062       4.2155000      -1.2840000      0.19125000       341.91100       1.9330275    0.0093971882
       486.00002       290.89987       98907.988       15866.564       3.2895000      -1.1260000    -0.035750000       342.49400       1.9610922    0.0078500595
       491.00003       290.97069       98923.879       15842.491       3.1345000      -1.0227500    -0.076750000       342.43200       1.9360276     0.011987681
       496.00001       291.01380       98923.615       15818.679       3.8982500      -1.5090000    -0.042250000       343.15600       1.9433612    0.0097501697
       501.00002       291.03008       98904.664       15833.803       4.4280000      0.44825000     -0.28750000       342.11200       1.9427114    0.0089546858
       506.00003       291.01250       98903.351       15803.275       2.4932500     -0.29725000     0.060500000       343.42700       1.9326155     0.013123446
       511.00000       290.96986       98907.246       15755.682       3.6162500      -2.2235000     -0.34875000       342.90600       1.9186591    0.0098192986
       516.00002       290.91287       98903.973       15684.391       4.0490000     -0.87275000     0.097250010       343.09400       1.8901508     0.010495983
       521.00003       290.83130       98903.144       15585.838       3.1555000      -1.2422500      0.60800000       343.31200       1.9472266    0.0086791917
       526.00000       290.68905       98916.533       15438.069       3.1012500     -0.33950000    -0.057000000       343.50400       1.9482744    0.0089719434
       531.00002       290.63106       98921.166       15331.610       3.3307500      -1.0575000      0.10125000       343.17000       1.9158084    0.0086586706
       536.00003       290.59991       98913.389       15229.815       2.5747500      -2.1687500      0.60050000       344.00900       1.9352098    0.0088901339
       541.00000       290.52430       98925.810       15040.940       4.4580000      -2.3335000      0.82850000       342.78400       1.8711135    0.0099828006
       546.00002       290.49233       98932.331       14947.777       3.3885000      -1.2510000      0.41425000       343.00200       1.9103257    0.0099934091
       552.00002       290.43868       98930.306       14858.325       4.6105000     -0.36225000    -0.088750000       342.62200       1.8812944     0.011321087
       557.00004       290.43230       98930.288       14840.582       3.0512500     -0.72850000    -0.013250000       343.85800       1.9272572    0.0094945576
       562.00001       290.59738       98937.488       14999.551       5.4255000      -2.1435000      0.90225010       342.73100       1.9373579    0.0087280781
       567.00002       290.57896       98931.732       15040.764       5.4647500      -2.8250000     -0.45275000       341.94000       1.9510930    0.0096136133
       572.00004       290.41973       98906.457       15053.178       4.4125000     -0.98925010     0.093250010       342.12700       1.9131209    0.0088522150
       577.00001       290.33825       98902.226       15036.010       3.8520000     -0.10825000      0.13100000       342.18000       1.8785537     0.011861909
       582.00002       290.17571       98909.480       14958.235       5.5377500      -2.6327500      0.16250000       342.14000       1.8451502     0.013182133
       587.00003       290.05864       98904.535       14863.500       3.4312500      -1.2565000      0.53375000       342.32000       1.8777848    0.0094291337
       592.00001       290.03145       98901.322       14733.867       3.9837500      -1.9435000      0.38150000       341.80300       1.8497234     0.013763782
       597.00002       289.99171       98906.300       14619.365       3.5440000      0.38450000      0.70250000       343.31000       1.9118496    0.0084222649
       602.00003       289.89091       98905.072       14414.324       2.6402500       1.2242500       1.3945000       343.15300       1.9106251    0.0080561703
       607.00001       289.87560       98903.453       14335.143       5.0502500      0.64875000      0.17250000       342.52500       1.8671798     0.011370898
       612.00002       289.96649       98920.382       14342.037       5.7827500       1.0935000     -0.75050000       341.82300       1.9007894    0.0087072048
       617.00003       290.00655       98924.656       14352.421       6.0140000      -1.0730000     -0.73725000       342.42000       1.9489567    0.0090959937
       622.00001       290.07965       98904.816       14458.581       4.7747500      -1.1052500     -0.27525000       341.84000       1.9239117    0.0082044506
       627.00002       290.11770       98902.469       14530.502       4.4077500     -0.45075000     -0.37500000       341.74200       1.9310918    0.0088707105
       632.00003       290.12871       98918.665       14602.001       4.6292500     -0.90575000     -0.32325000       341.70500       1.9283041    0.0086748380
       637.00000       290.10677       98917.290       14649.183       3.8770000     -0.47825000      0.33800000       342.68200       1.8816878     0.012725664
       643.00001       290.03714       98903.218       14696.760       3.1725000     -0.40650000      0.72075000       343.14900       1.8776125    0.0094897944
       648.00003       289.98396       98904.954       14715.299       3.8647500      -1.5077500     -0.17075000       342.27500       1.9135280     0.013179367
       653.00000       289.88561       98905.288       14712.752       3.3107500      -1.4325000      0.98475000       343.20300       2.0345408    0.0091327631
       658.00001       289.81921       98903.071       14683.628       3.0155000     -0.80575000      0.42175000       343.99600       2.2953355    0.0093194346
       663.00002       289.79269       98916.245       14639.085       2.9157500      -2.5777500    -0.081500000       341.89500       2.2439847     0.010967431
       668.00000       289.72838       98918.435       14572.497       4.0050000     -0.35275000      0.17100000       342.61700       4.8959194     0.017278125
       673.00001       289.63993       98897.806       14485.233       4.0442500     0.068250000      0.48925000       341.98000       2.7976177     0.013696839
       678.00002       289.56961       98896.984       14363.240       3.8677500      -1.3535000      0.24450000       341.69200       4.4601345     0.012912043
       683.00000       289.44546       98918.293       14154.044       3.8315000      -1.3997500      0.50325000       343.09300       4.1418562     0.010991722
       688.00001       289.42118       98917.380       14055.778       1.8245000     -0.43850000     -0.21325000       343.29700       5.9363894     0.016614522
       693.00002       289.49380       98903.215       13973.863       5.5827500      -1.5825000      0.15050000       341.54000       2.8254133    0.0094422134
       698.00004       289.50364       98904.931       13915.099       5.0407500     -0.14475000      0.59325000       342.26900       3.8895590     0.010069040
       703.00001       289.55262       98905.316       13942.319       5.9285000      0.92700000     -0.19200000       342.08900       3.9933870     0.014061265
       708.00002       289.56474       98903.078       13952.061       5.4972500      0.67400000    -0.077250000       342.34600       5.2186529     0.010612124
       713.00004       289.49320       98914.926       13922.651       5.2425000      0.96500000     -0.57900010       341.78400       5.7457813     0.014138193
       718.00001       289.49091       98918.560       13963.981       5.9747510     -0.10825000      0.51175000       342.21100       5.5263403     0.019904099
       723.00002       289.52577       98902.932       14069.807       4.2720000     -0.69675000      0.85125010       342.85500       4.3512473     0.010663595
       728.00003       289.55952       98902.669       14168.872       5.1230000      -1.2022500     0.039000000       342.11600       5.0485023     0.011821010
       734.00000       289.63011       98924.284       14314.140       3.6847500      -1.5312500      0.87150000       342.35300       5.2357766     0.014161818
       739.00001       289.67964       98921.572       14460.081       3.1577500      0.11975000      0.52325000       342.07400       4.1118840     0.010499814
       744.00003       289.74081       98906.158       14658.369       3.9370000     -0.83850000     -0.13475000       342.11400       4.3656977     0.013715909
       749.00000       289.77454       98903.768       14781.288       5.8167500      -2.0017500      0.72475000       341.69600       3.5280230     0.012565007
       754.00001       289.81007       98894.507       14948.963       5.1477500      -1.6980000    0.0087500000       341.90000       2.2557458    0.0080735378
       759.00003       289.80764       98891.981       14970.658       5.5872500      -2.2730000     -0.72400000       341.68800       3.0182793     0.010653749
       764.00000       289.77960       98905.734       14868.406       3.8307500      0.16100000      0.59275000       342.30700       1.9340270     0.012786435
       769.00001       289.72727       98907.844       14777.945       4.0095000      -1.0210000     -0.37200000       342.13000       3.4800515    0.0093701216
       774.00003       289.60504       98897.109       14597.121       2.9007500      0.67625000     -0.38875000       342.34800       4.2082487     0.011214896
       779.00000       289.56808       98900.655       14472.233       5.0640000      -1.4260000     -0.58050000       341.90000       5.0313800     0.011194043
       784.00001       289.53274       98918.465       14322.920       4.4382500       1.2957500      0.17750000       342.18200       2.7349964    0.0088356737
       789.00003       289.54132       98916.448       14249.627       3.5207500     -0.40650000    -0.046500000       341.90500       2.1005476     0.010531784
       794.00000       289.62902       98903.572       14195.300       4.5740000     -0.42625000     -0.23650000       341.35600       5.2663291     0.010863682
       799.00001       289.67934       98905.787       14199.424       4.6142500      -1.6752500      0.54350000       342.26300       4.7579464    0.0099824712
       804.00002       289.74102       98904.136       14295.139       3.2890000      -1.1940000      0.32050000       342.31000       5.9751257     0.013949867
       809.00000       289.77513       98903.996       14347.070       6.0207510      -3.5285000      0.38975000       341.88800       4.0006417     0.010743643
       814.00001       289.79949       98922.549       14413.569       5.6690000      -2.0740000     -0.29650000       341.98300       3.4340827     0.011239587
       819.00002       289.81355       98923.924       14481.848       5.5720000      -1.6697500    -0.026000000       342.17700       3.3295777    0.0097283377
       825.00003       289.80891       98901.497       14569.833       7.0300000     -0.63625000     -0.61150000       341.47700       5.4279583     0.011766063
       830.00000       289.79028       98904.677       14606.863       4.9960000     -0.84225000      0.70525000       342.24000       2.3099077     0.012510042
       835.00002       289.74619       98923.794       14645.504       6.0545000      -2.0080000      0.19075000       342.09400       2.9790811     0.013676889
       840.00003       289.74538       98919.388       14661.871       5.6222500      -2.2097500      0.30600000       342.29500       2.9393454     0.011193300
       845.00000       289.74369       98911.094       14621.457       5.2190000      -1.3445000      0.30825000       342.26900       2.9650468     0.015393399
       850.00002       289.75253       98909.310       14639.605       5.1790000     -0.39250000     -0.12050000       341.59200       3.6347585     0.015678979
       855.00003       289.82981       98892.173       14711.969       2.1732500      -1.0977500    -0.057500000       342.26800       3.3852390    0.0093617567
       860.00000       289.78505       98891.356       14684.158       4.6720000     -0.83550010     -0.58125000       342.32000       3.1148546    0.0092610715
       865.00002       289.67057       98913.915       14633.744       4.7722500       1.6442500     0.081000000       342.14100       3.8278040    0.0098799623
       870.00003       289.59246       98911.637       14560.578       6.4467500      -3.9495000      0.49200000       341.92400       6.3972945     0.013574043
       875.00000       289.44512       98891.949       14403.257       5.5895000      -3.1047500     -0.47800000       341.65400       3.2148164     0.013888320
       880.00001       289.39123       98895.178       14314.752       4.3890000      -1.2820000      0.44175000       342.16200       3.2499914     0.010562272
       885.00003       289.40706       98903.964       14261.471       3.8102500      -1.6400000     0.015500000       342.14500       2.3438581    0.0085981625
       890.00000       289.37725       98906.953       14172.461       4.5597500      -1.8225000   -0.0035000000       341.53300       5.9009600     0.015391637
       895.00001       289.34600       98923.231       14048.422       4.0742500      0.37800000       1.1235000       342.32000       2.8149464    0.0091314640
       900.00003       289.34502       98923.059       14016.202       4.7705000      0.11750000    -0.069250000       341.90700       4.6073467     0.012871071
       905.00000       289.34322       98901.273       13997.193       5.1547500      -1.1635000     -0.23550000       341.86000       4.4565375     0.010840399
       910.00001       289.35169       98904.405       14021.946       5.7955000      0.17275000     0.085750010       341.78400       5.4175516     0.010227064
       916.00002       289.40623       98923.513       14150.660       5.6780000      -2.4180000      0.29150000       342.14700       7.6768502     0.013240878
       921.00003       289.41501       98918.000       14211.683       2.5540000    -0.053000000    -0.064750000       342.30300       3.9226490    0.0095739036
       926.00001       289.38652       98911.285       14254.526       3.0447500     -0.61375000      0.61200000       342.38600       4.7639029     0.010910328
       931.00002       289.42958       98909.024       14344.498       5.6792500     -0.90100000      0.60050000       341.86100       5.9559259     0.011344010
       936.00003       289.50596       98890.616       14462.596       4.2597500      0.48225000      0.31725000       341.72900       4.9782366     0.011270525
       941.00001       289.52478       98919.419       14539.946       4.8147500      0.13600000     -0.47750000       341.22800       3.0948655    0.0094773900
       946.00002       289.55594       98925.656       14615.885       5.4050000     -0.31025000     -0.11675000       341.53400       8.0436009     0.013221909
       951.00003       289.54501       98903.263       14667.744       3.7217500      0.10050000     -0.47375000       341.84900       9.3286378     0.037943430
       956.00000       289.54396       98902.864       14701.239       4.7310000     -0.47950000     -0.12900000       341.85000       3.7478411    0.0092120027
       961.00002       289.60003       98910.308       14760.089       5.1290000      -1.1372500     -0.23125000       341.45400       4.0931461     0.014106525
       966.00003       289.61249       98909.050       14771.485       5.2175000      -2.3735000      0.36100000       341.42000       3.4056170    0.0086027404
       971.00000       289.60036       98910.236       14747.075       5.3442500      -1.1572500     -0.23725000       341.47800       3.6825007    0.0094322098
       976.00002       289.54481       98930.113       14660.850       4.7685000      0.95900010      0.14275000       341.69200       4.8121142     0.010077486
       981.00003       289.54620       98927.141       14640.806       3.7122500     -0.33175000      0.27900000       342.08100       2.9266706    0.0084513485
       986.00000       289.53816       98901.298       14606.226       3.9500000   -0.0050000000      0.51550000       342.24500       2.9713240    0.0098256215
       991.00002       289.61536       98918.480       14644.875       4.1890000     -0.33825000      0.68025000       341.76900       3.2554972    0.0091253757
       996.00003       289.65725       98921.859       14679.971       4.6847500     -0.73700000      0.16025000       341.83600       3.0669211     0.012487333
       1002.0000       289.70476       98923.387       14736.992       4.4302500     -0.37575000      0.76075010       341.81100       2.4552961    0.0087209045
       1007.0000       289.71222       98927.083       14776.921       2.1795000     -0.11325000       1.0485000       342.06700       5.0934178     0.011407554
       1012.0000       289.68131       98918.230       14843.068       4.4340000      -1.6447500     0.098500010       341.62500       5.3756590     0.010527394
       1017.0000       289.64973       98917.718       14862.339       5.8870000     -0.77025000     -0.45900000       341.51000       7.2485315     0.013784843
       1022.0000       289.56172       98939.843       14817.475       5.2525000       1.3347500     -0.12875000       341.63000       3.2582343     0.010083682
       1027.0000       289.53405       98938.644       14824.845       4.1612500      0.14575000      0.26575000       341.72600       6.4921213     0.012654582
       1032.0000       289.58646       98911.468       14869.225       4.8837500     -0.31675000      0.11050000       341.85500       7.4793767     0.014951618
       1037.0000       289.55428       98906.828       14855.530       3.7940000      0.38875000     -0.43800000       342.17600       5.8703791     0.012397507
       1042.0000       289.51571       98903.055       14892.042       2.8820000     -0.51725000      0.34700000       342.23600       3.6470765    0.0092682308
       1047.0000       289.45186       98901.831       14829.334       3.0677500     -0.26225000    -0.032000000       342.23500       3.1569412    0.0084654282
       1052.0000       289.27593       98929.686       14628.457       2.8540000     -0.30700000      0.11100000       342.43700       2.9168931     0.011411169
       1057.0000       289.16919       98935.712       14480.656       2.6375000      -1.5997500     0.048000000       342.44000       5.6521620     0.012924264
       1062.0000       289.07179       98915.883       14273.851       3.0437500      0.28900000      0.17450000       342.26200       3.8040252    0.0097645731
       1067.0000       289.02567       98913.252       14140.166       2.2360000      -1.8527500      0.30575000       342.33300       4.5386906     0.011717003
       1072.0000       289.05807       98913.458       14060.679       3.2102500      -1.2542500     0.091000010       342.05700       3.5562366     0.010504910
       1077.0000       289.04770       98913.747       13987.404       1.8797500     -0.28775000    -0.024750000       342.06400       5.5206866     0.013587123
       1082.0000       289.04165       98931.619       13926.304       3.4447500     -0.71425000     -0.14525000       342.06000       2.8457009     0.012756775
       1087.0000       289.05158       98934.019       13916.920       2.8630000      -1.6857500      0.59900000       342.21200       3.7091177     0.010800127
       1093.0000       289.05617       98913.797       13973.816       2.5560000      -1.2575000      0.72425000       342.44900       6.8049655     0.014756843
       1098.0000       289.04628       98913.316       13999.399       5.3572500      0.54900000     -0.40000000       341.89900       2.9379868     0.012011531
       1103.0000       289.04456       98916.529       14049.402       5.3527500      -2.7227500     -0.15525000       341.64100       5.3286385     0.011289979
       1108.0000       289.05446       98919.707       14107.654       4.3872500     -0.77575000      0.25175000       341.92500       3.4938346     0.010248874
       1113.0000       289.05592       98941.894       14160.664       3.3757500      -2.0457500    -0.044750000       341.97000       4.6512567     0.010640381
       1118.0000       289.04554       98944.198       14201.803       4.0020000      0.24350000      0.86975000       341.98200       3.3470203    0.0095842910
       1123.0000       289.05674       98924.906       14277.026       2.0920000      -2.0032500      0.30950000       342.15500       5.5494370     0.012870727
       1128.0000       289.05318       98923.060       14316.533       4.5150000     -0.46600000   -0.0040000000       341.69900       4.0008856    0.0087308383
       1133.0000       288.99224       98923.240       14292.524       1.8707500      -1.2607500      0.49150000       342.13000       3.1284016    0.0087396792
       1138.0000       288.99012       98924.412       14315.377       2.3262500      -2.4327500    -0.046250000       341.93400       4.9090637     0.014525011
       1143.0000       289.06423       98938.719       14399.816       4.7407500      -2.2420000      -1.4845000       341.61200       2.4486071    0.0087986831
       1148.0000       289.05698       98943.572       14394.511       2.9785000      -3.9602500     0.027500000       341.46300       2.6494376    0.0090339238
       1153.0000       289.03426       98940.376       14366.097       4.1885000      -4.2697500      -1.0227500       341.19000       2.0326184    0.0094733374
       1158.0000       288.99638       98940.395       14312.205       4.3805000      -2.7250000     -0.36050000       341.47700       2.0526206    0.0081386691
       1163.0000       288.86016       98944.032       14153.935       4.0692500      -2.3937500     -0.80625000       341.61000       2.0540627     0.010054829
       1168.0000       288.82095       98939.831       14074.087       2.6552500      -1.0527500      0.27875000       341.89400       2.2105071    0.0087804233
       1173.0000       288.83086       98926.255       14007.975       2.6990000      -1.0890000     0.097750010       341.84900       2.2726877    0.0087074213
       1178.0000       288.84818       98922.982       13982.126       3.2677500      -1.5207500      0.65625010       341.70400       3.0574545     0.011151755
       1184.0000       288.95220       98917.921       14023.655       2.1532500      0.29750000      0.36200000       341.95300       7.0812352     0.013258631
       1189.0000       288.96933       98919.428       14021.639       4.7337500      -2.6042500     -0.66600000       341.60100       5.1743678     0.011355590
       1194.0000       288.93511       98938.933       14005.150       1.6485000      -1.7005000      0.57725000       341.75300       3.6513806    0.0093905200
       1199.0000       288.96155       98937.003       14045.556       4.0930000      -2.2575000     -0.19250000       341.37600       2.5702033    0.0088720521
       1204.0000       288.99663       98922.357       14100.266       4.9777500      -2.1055000      0.87975000       341.78400       3.8536673     0.011034368
       1209.0000       289.00675       98917.422       14149.420       5.3672500      -3.3667500      0.31575000       341.61300       3.2464473     0.016974540
       1214.0000       289.04516       98901.436       14247.287       3.8120000      -2.4230000    0.0090000010       341.72100       2.9391302    0.0099286648
       1219.0000       289.06889       98902.749       14327.212       5.2967500      -3.5110000     -0.16200000       341.61000       7.3079681     0.014788712
       1224.0000       289.03168       98927.151       14365.367       4.0197500      -2.3975000     -0.36175000       341.51100       2.4271416     0.013174881
       1229.0000       289.05410       98927.911       14445.337       3.6742500      -1.1520000      0.38950000       341.93500       4.3134093     0.011017985
       1234.0000       289.16383       98919.924       14616.467       2.4217500      -1.3392500     0.038250000       341.83000       2.6229994    0.0084706746
       1239.0000       289.16543       98920.888       14654.854       2.0417500      -1.1647500      0.64700000       341.92100       2.9171987    0.0094608119
       1244.0000       289.10564       98911.619       14620.081       2.4475000     -0.64750000      0.69925000       342.02200       4.0877656     0.012358750
       1249.0000       289.09554       98913.773       14619.985       1.9682500     -0.22200000      0.78725000       341.99100       2.8249284    0.0091385889
       1254.0000       289.03396       98938.787       14547.148       3.5705000      -1.9297500      0.50125000       341.69800       2.0207580    0.0086589380
       1259.0000       289.04287       98938.541       14539.562       4.2042500      -1.2800000     0.065250000       341.56800       3.0935985     0.010135351
       1264.0000       289.14252       98919.709       14601.292       2.7257500      -2.4210000      0.17825000       341.66600       4.3883822     0.011702279
       1269.0000       289.17664       98917.872       14616.052       3.2042500      -2.0610000      0.11450000       341.74900       3.0208754     0.010320191
       1275.0000       289.20267       98911.888       14606.763       3.2490000      -1.3817500     -0.45150000       341.85200       4.5633048     0.011804893
       1280.0000       289.21378       98915.166       14622.419       3.1612500     -0.69800000     -0.98725000       341.70300       4.2539343     0.011135579
       1285.0000       289.20034       98939.425       14638.535       2.9280000       1.1295000     -0.78050010       341.64600       4.4011165     0.012144965
       1290.0000       289.20045       98937.101       14665.170       3.1785000     -0.75225000    -0.070500000       341.76100       7.6949132     0.015959015
       1295.0000       289.20906       98919.674       14725.032       3.2955000      -1.6777500      0.17950000       341.82600       6.7806479     0.014902498
       1300.0000       289.19033       98918.529       14727.351       4.2950000     -0.61050000      0.24425000       341.86400       9.2918436     0.018867566
       1305.0000       289.15318       98912.178       14700.060       4.3015000      -1.6115000     -0.20600000       341.37900       5.7119280     0.012470876
       1310.0000       289.13319       98915.543       14694.002       3.2787500      -1.0652500      0.53150000       341.95000       4.0074201     0.013055805
       1315.0000       289.09692       98938.572       14663.109       2.2407500      -1.6567500      0.46025000       341.74900       2.8847579    0.0089475998
       1320.0000       289.08579       98938.296       14656.535       5.5367500      -1.2420000     -0.32550000       341.47000       2.5913527    0.0084345206
       1325.0000       289.10002       98924.935       14675.710       5.8545000      -1.8780000     -0.53850000       341.44100       3.2522879    0.0093224049
       1330.0000       289.09996       98923.773       14683.297       6.1397500      -1.0622500     -0.35575000       341.71000       2.1310205    0.0089008318
       1335.0000       289.09977       98917.320       14683.432       3.8147500     -0.45275000      0.12850000       341.75800       4.1342891     0.010828963
       1340.0000       289.09966       98919.852       14692.028       2.4167500      -1.4100000    -0.022250000       341.73300       6.1968209     0.012881318
       1345.0000       289.09999       98939.132       14716.357       2.2332500     -0.27050000      0.71475010       341.96000       7.5368151     0.013307479
       1350.0000       289.10005       98935.964       14717.886       2.0825000      -1.3677500     0.067250010       341.75300       4.3745560     0.012085619
       1355.0000       289.10937       98921.045       14722.042       2.3475000      -1.4765000      0.21200000       341.70200       6.7368051     0.014223806
       1360.0000       289.09087       98916.033       14689.241       3.7760000      -2.2080000     -0.54900000       341.55800       2.8565367     0.010696579
       1366.0000       289.04966       98900.909       14610.679       3.4575000      -2.1647500      0.25600000       341.64100       2.4527445    0.0096820043
       1371.0000       289.02976       98905.712       14580.589       3.3117500      -1.0715000      0.22525000       341.66100       5.3535536     0.013847604
       1376.0000       288.99359       98927.559       14535.990       3.9062500     -0.67350010    -0.026000000       341.32600       4.8284981     0.015686686
       1381.0000       288.98501       98928.001       14522.785       2.4610000      -1.7725000     0.072000000       341.78100       5.9348028     0.012702678
       1386.0000       289.00645       98925.834       14547.545       3.0370000      -1.5667500      0.10300000       341.55000       2.8304255     0.010308556
       1391.0000       288.96917       98919.305       14541.290       4.6925000      0.12225000      0.17725000       341.48500       6.0458489     0.012630918
       1396.0000       288.94880       98917.725       14528.596       2.1570000      -1.1705000      0.31875000       341.51900       6.0031276     0.014045560
       1401.0000       288.92967       98931.890       14515.040       3.9025000      -2.8840000     -0.37075000       341.67700       3.6631892     0.012658262
       1406.0000       288.89992       98937.173       14490.752       1.9820000      -2.2660000     -0.11250000       341.76600       2.5146089     0.011286664
       1411.0000       288.87042       98938.679       14444.191       1.8602500      -1.4840000      0.89975010       341.88800       3.1064282     0.010841714
       1416.0000       288.85088       98937.028       14411.149       4.2945000      -1.4645000    -0.083000000       341.56200       2.7295950    0.0098292071
       1421.0000       288.83140       98931.684       14381.039       4.9520000      -2.0432500      0.11675000       341.75800       2.9350647     0.011002640
       1426.0000       288.78742       98917.579       14341.309       2.7857500      -1.7005000      0.69100000       341.83600       2.6335842    0.0096348837
       1431.0000       288.80037       98919.061       14333.755       4.0712500      -2.2982500    -0.088250000       341.38800       1.9783239     0.010142348
       1436.0000       288.84420       98924.715       14344.079       2.5000000      -2.0477500     -0.32925000       341.48900       1.9727807    0.0091917700
       1441.0000       288.90052       98937.175       14337.714       2.9535000      -1.1150000      0.35775000       341.76100       2.6212875     0.013037474
       1446.0000       288.95084       98939.062       14372.072       3.5467500     -0.69875000     -0.43875000       341.63900       2.7312256     0.012703254
       1451.0000       289.03053       98916.868       14470.829       3.4942500     -0.11550000      0.24625000       341.47400       2.6768164     0.011077947
       1457.0000       289.06619       98912.205       14531.978       2.9455000     -0.96600000     0.064250000       341.66100       4.7651185     0.013003032
       1462.0000       289.08647       98916.621       14622.689       3.1337500     -0.94525000    -0.032250000       341.65000       4.4520404     0.012383666
       1467.0000       289.06215       98919.115       14645.268       2.1707500      -1.8392500     -0.38450000       341.67800       4.4192658     0.013374891
       1472.0000       288.91397       98941.908       14535.441       2.5410000      -1.6482500      0.40450000       341.83500       4.7398390     0.012144846
       1477.0000       288.87780       98944.927       14528.197       3.2765000      -1.0502500    -0.061000000       341.69700       2.5183568     0.010822623
       1482.0000       288.90218       98920.693       14578.249       1.9952500     -0.77450000      0.16600000       341.88900       2.9035081     0.010061017
       1487.0000       288.89334       98917.066       14582.688       4.1017500      -4.9535000     -0.37600000       341.30000       3.3530132     0.012240498
       1492.0000       288.93280       98917.819       14627.650       2.5027500      -2.2695000      0.79575000       341.79400       2.0837086    0.0096682748
       1497.0000       288.96126       98918.391       14643.815       3.8992500     -0.86200000      0.22475000       341.45300       2.1426651    0.0099354864
       1502.0000       288.91509       98942.082       14543.051       3.6632500      -3.8710000      0.25250000       341.44800       3.6251862     0.011307853
       1507.0000       288.93827       98945.087       14550.799       3.5540000      -1.1307500   -0.0062500000       341.73700       2.0752508    0.0089702200
       1512.0000       289.07156       98922.805       14669.759       3.9640000      -3.4707500     -0.47600000       341.32800       2.2998069    0.0096089272
       1517.0000       289.11905       98918.261       14717.445       3.2937500      -2.0737500     -0.77375000       341.50700       2.4469171    0.0096912295
       1522.0000       289.14552       98913.081       14791.058       2.9252500      -2.5640000     -0.35350000       341.56100       1.9893685    0.0086235095
       1527.0000       289.16335       98912.608       14832.342       3.6767500      -1.8145000    -0.057750000       341.46100       2.0666280     0.011180041
       1532.0000       289.09561       98934.890       14772.838       2.2380000      -1.4575000     -0.66825000       341.48500       1.9522625    0.0098694247
       1537.0000       289.08763       98939.230       14779.684       2.4927500      -1.1300000     -0.62950000       341.42100       4.1090130     0.011569128
       1542.0000       289.14832       98930.650       14859.292       2.7840000     -0.26450000      0.33100000       342.03000       3.7113761     0.011198807
       1548.0000       289.15723       98924.121       14879.015       3.2005000     -0.15725000      0.39550000       341.63100       4.7660399     0.015702476
       1553.0000       289.15803       98902.659       14888.114       2.5790000      -1.2822500      -1.2222500       341.50900       4.8252342     0.013344786
       1558.0000       289.15398       98901.408       14886.696       3.0930000      -1.2362500    -0.045000000       341.67300       5.0624846     0.013672728
       1563.0000       289.10520       98917.355       14825.922       3.1672500      -1.4690000     0.049250000       341.75800       4.0461144     0.011728241
       1568.0000       289.08876       98922.415       14806.269       2.1450000     -0.72125010      0.21375000       341.96700       2.9259825     0.013160968
       1573.0000       289.11292       98938.350       14841.292       3.4675000      0.77625010     -0.46000000       341.70000       4.8826005     0.014544190
       1578.0000       289.09927       98938.798       14815.220       3.0320000     0.099750000      0.84600000       341.82200       4.1315737     0.012890735
       1583.0000       289.06208       98915.651       14759.921       3.4492500    -0.091250000      0.38500000       341.77000       5.4988840     0.013532678
       1588.0000       289.04244       98912.329       14710.073       3.4797500      0.74325000     0.044500000       341.69500       4.5811048     0.013054636
       1593.0000       289.00513       98912.092       14619.847       3.1470000      0.13625000     -0.83525000       341.59100       3.1459315     0.010547867
       1598.0000       288.98889       98914.617       14555.077       2.8782500     -0.85225000     -0.26850000       341.68700       7.7329234     0.015669261
       1603.0000       289.01377       98937.907       14517.165       2.7732500     -0.47650000     -0.42825000       341.58400       2.8063030     0.012993459
       1608.0000       289.00009       98939.229       14458.602       3.6222500      -2.1582500    -0.043250000       341.37600       4.2719599     0.012768116
       1613.0000       288.96200       98924.552       14365.420       4.7945000     -0.25600000    -0.048000000       341.75800       5.0510459     0.015356423
       1618.0000       288.94195       98918.183       14325.788       4.4477500      -1.3530000     -0.24525000       341.43500       3.2204554     0.011008232
       1623.0000       288.90458       98897.079       14306.544       4.0200000     -0.53625010     -0.70900010       341.51200       4.3924252     0.012518438
       1628.0000       288.88796       98895.922       14293.304       4.2990000     -0.59450000     -0.36100000       341.59600       4.5439001     0.012543337
       1634.0000       288.92256       98920.468       14351.041       4.1080000      -1.2070000     -0.30025000       341.57700       2.5669301     0.012781606
       1639.0000       288.89044       98923.592       14328.304       2.7695000      -1.2242500     -0.33575000       341.95600       4.8571389     0.013299201
       1644.0000       288.80617       98928.815       14252.880       2.5930000      -1.2070000     0.053250000       341.83600       3.5184926     0.016070406
       1649.0000       288.78241       98926.551       14215.985       2.3670000      0.13050000      0.17700000       341.99500       3.3363853     0.011073406
       1654.0000       288.74416       98903.157       14159.872       4.8060000      0.17825000      0.27775000       341.67300       4.5299716     0.014734555
       1659.0000       288.73657       98901.935       14119.465       4.4465000      0.34100000      0.32700000       341.47400       3.8524671     0.011038278
       1664.0000       288.79958       98912.206       14104.675       6.5727500       1.0440000     0.068250000       341.32600       8.2078995     0.015568873
       1669.0000       288.81349       98918.539       14088.111       5.9627500     -0.61625000     0.025250000       341.25500       4.7470195     0.012001800
       1674.0000       288.78920       98937.925       14046.628       5.7970000     -0.29900000      0.74650000       341.57800       6.0090571     0.014608425
       1679.0000       288.80547       98939.155       14055.451       4.3970000     -0.34625000     -0.22275000       341.58200       2.9069607     0.010084068
       1684.0000       288.85349       98927.653       14112.138       4.8920000     -0.71425000      0.94650010       341.54800       6.2445559     0.012976488
       1689.0000       288.85744       98923.091       14143.444       4.1977500     -0.29650000      0.41875000       341.66900       3.7596327     0.011961924
       1694.0000       288.88179       98906.981       14224.371       6.8600000      -1.6395000      0.19675000       341.38300       6.3069208     0.012656187
       1699.0000       288.84269       98907.842       14210.744       6.9742500      -2.1585000     -0.13225000       341.27500       3.6747361     0.010306016
       1704.0000       288.70659       98924.179       14125.687       3.8722500      -1.1100000      0.45725000       341.56000       3.9448568     0.011315951
       1709.0000       288.66894       98928.663       14086.051       7.1910000      -2.3655000      0.10175000       341.15800       3.9151002     0.010899902
       1714.0000       288.63253       98939.135       13995.234       5.1637500      -2.7462500     -0.53425000       341.25500       2.7942233    0.0099301873
       1719.0000       288.64077       98936.454       13967.894       5.9717500      -1.6552500      0.13975000       341.30400       2.9287387     0.010139422
       1725.0000       288.75867       98913.761       14012.889       5.3165000      -2.0352500     -0.40925000       341.22500       3.0367047    0.0096505858
       1730.0000       288.77147       98912.372       14006.650       3.6800000     -0.23800000     -0.52525000       341.39500       2.3413625     0.010787152
       1735.0000       288.75774       98912.976       13992.871       2.7255000      -2.3425000    -0.094250000       341.56300       2.3515207    0.0099144849
       1740.0000       288.74847       98915.739       13983.354       3.4177500     -0.85750000    -0.095750000       341.53300       2.8822242     0.012409843
       1745.0000       288.69748       98931.215       13963.656       3.4322500    0.0085000000     -0.18425000       341.63200       5.1845528     0.014041434
       1750.0000       288.68623       98934.645       13946.688       1.4845000     -0.95975010      0.81425010       341.90300       4.1240832     0.013119077
       1755.0000       288.69122       98932.992       13924.505       3.7510000     -0.18925000      0.37025000       341.53000       5.4481115     0.014807994
       1760.0000       288.70993       98927.415       13934.659       3.8630000     -0.56600000    -0.024750000       341.58300       3.3551902     0.011602020
       1765.0000       288.74655       98913.009       13954.976       3.0030000     -0.54175000      0.86350010       341.66800       4.6424640     0.013775513
       1770.0000       288.76639       98914.528       13973.730       3.2065000     0.073250000     -0.21825000       341.64000       3.6572295     0.012640250
       1775.0000       288.81212       98917.840       14036.253       3.7532500      -1.1555000      0.37300000       341.37000       3.4818178     0.011348608
       1780.0000       288.80503       98922.399       14034.893       6.3512500     -0.32575000      0.62025000       341.60500       6.8364786     0.018604828
       1785.0000       288.74531       98945.103       13979.769       4.0330000      -1.2010000     0.038250000       341.52700       5.5447039     0.014943571
       1790.0000       288.74392       98941.904       13984.509       5.1565000      0.42050000     -0.53950000       341.51500       4.0547551     0.011770546
       1795.0000       288.74335       98919.403       13986.485       2.9567500      -1.2417500      0.26800000       341.90300       3.3510405     0.010489026
       1800.0000       288.75203       98917.082       14008.815       4.8667500     -0.98675010      0.17775000       341.50000       3.1058755     0.012608613
       1805.0000       288.81245       98912.261       14096.864       4.7540000      -1.8942500      0.46350000       341.24100       4.4983532     0.012896106
       1810.0000       288.80542       98915.622       14092.851       5.2677500      -3.0270000     -0.34500000       341.26700       4.9697461     0.015345451
       1816.0000       288.74396       98937.252       14032.654       3.6490000      -1.3390000      0.48150000       341.57300       3.3628288     0.011550796
       1821.0000       288.74507       98941.843       14019.118       4.1822500      -1.4335000      0.55750000       341.52600       3.8177479     0.011674565
       1826.0000       288.74328       98943.482       13973.735       3.4027500      -3.2340000      0.43025000       341.62200       3.7279259     0.013638218
       1831.0000       288.75499       98935.669       13981.256       4.7547500     -0.83300010      0.44850000       341.61400       3.4743457     0.012351757
       1836.0000       288.80624       98918.768       14040.194       3.1302500      -1.4745000      0.54650000       341.58900       9.5731182     0.017177929
       1841.0000       288.77057       98913.949       14001.888       4.3780000      -1.0115000     -0.34675000       341.36800       4.2998260     0.014509740
       1846.0000       288.78786       98912.290       14023.108       5.2970000     -0.13375000    0.0065000000       341.52400       3.1936301     0.012744195
       1851.0000       288.86040       98928.880       14083.639       5.1027500     -0.50825000     -0.38250000       341.42700       5.3270153     0.015791737
       1856.0000       288.89998       98937.126       14126.902       3.6925000      0.56300000    -0.022250000       341.61500       3.6440738     0.014159100
       1861.0000       289.00010       98944.739       14248.899       4.1655000    -0.083750000     -0.16175000       341.63900       2.2502515     0.011812702
       1866.0000       289.02509       98943.328       14301.750       3.0887500      -1.0730000      0.27425000       341.92000       2.2704575     0.010846556
       1871.0000       289.00080       98935.750       14312.128       2.7937500      -1.5677500      0.55525000       341.80200       2.8292578     0.011358455
       1876.0000       288.89528       98920.195       14258.151       2.1520000     -0.71250000      0.19875000       341.88300       5.1893339     0.017034758
       1881.0000       288.87622       98914.291       14249.279       2.9502500      -2.3747500      0.43325000       341.38000       7.5953632     0.016453532
       1886.0000       288.84346       98901.168       14229.053       3.1800000      -1.6095000     -0.34150000       341.49200       2.0147439     0.010768079
       1891.0000       288.83955       98919.469       14161.325       3.2505000      -1.0310000     -0.50250000       341.68100       2.3460112     0.011525505
       1896.0000       288.84947       98926.912       14117.807       4.8475000     -0.97450010     -0.23950000       341.47400       3.1744691     0.012845172
       1901.0000       288.82968       98935.877       14016.042       4.4140000     -0.92950000      -1.1307500       341.70800       2.8950705     0.012480378
       1907.0000       288.84139       98938.220       13960.244       2.1610000    -0.075250010      0.61525010       342.17800       3.7478904     0.013207396
       1912.0000       288.92347       98921.657       13988.183       4.2805000      -1.2962500      0.33300000       341.85800       3.5875590     0.011511979
       1917.0000       288.96194       98918.087       14001.765       4.1370000     -0.18125000      0.47325000       341.68000       10.307944     0.043256228
       1922.0000       288.99003       98917.690       14036.835       4.3017500     -0.94525000      0.55125000       341.60100       5.5031633     0.013834669
       1927.0000       289.00890       98919.092       14064.461       4.8695000      -2.7825000      0.17350000       341.71600       3.6055518     0.012723215
       1932.0000       289.00000       98933.287       14080.518       5.0447500      -1.1947500    -0.030750000       341.41500       2.8532933     0.010863619
       1937.0000       289.00000       98937.996       14116.414       4.6850000      0.32575000      0.37575000       341.54700       4.0156860     0.012481801
       1942.0000       288.99974       98938.635       14171.625       2.8377500      -1.2385000     -0.13525000       341.84100       3.6066520     0.011791501
       1947.0000       288.99963       98936.187       14214.595       3.3732500      0.51275000     -0.24850000       341.86700       4.2285286     0.012411112
       1952.0000       289.01393       98924.583       14273.741       4.0210000      0.36800000     -0.48525000       341.63300       3.8888915    0.0096868305
       1957.0000       289.00262       98918.759       14314.301       6.0327500      -1.6367500     -0.19575000       341.42700       5.0169802     0.014134493
       1962.0000       288.95259       98907.901       14342.188       3.8775000     -0.43400000     -0.46700000       341.18400       2.9660826     0.011059775
       1967.0000       288.94403       98907.567       14358.188       2.7337500     -0.64350000      0.17925000       341.57600       2.8669384     0.011044703
       1972.0000       288.95860       98920.411       14384.093       3.6527500       1.0602500     0.090000000       341.53700       2.3391143     0.013287024
       1977.0000       288.94856       98926.434       14365.560       4.0062500      0.21375000      0.27975000       341.61400       2.9745507     0.013274352
       1982.0000       288.94180       98943.062       14270.014       3.0047500     -0.50700000      0.26275000       341.85500       2.4784289     0.011207441
       1987.0000       288.95173       98944.340       14238.858       2.9455000     -0.75725000     0.021750000       341.76700       2.3972017     0.011169811
       1992.0000       288.94337       98926.548       14208.281       2.2460000     -0.83275000     -0.34050000       341.59800       2.4554017     0.012694898
       1998.0000       288.94613       98916.972       14195.590       2.5695000      -1.0175000      0.19475000       342.12900       2.1120714     0.011064830
       2003.0000       289.02230       98896.905       14303.840       3.6160000     -0.73625000     0.015000000       341.68100       2.2290318     0.010981476
       2008.0000       289.01057       98896.052       14278.515       4.2930000      -1.1635000     -0.50300000       341.51900       2.1638577     0.015638065
       2013.0000       288.92405       98915.442       14172.757       2.8342500      -2.2297500     -0.35625000       341.79700       2.0566422     0.012203576
       2018.0000       288.88404       98923.442       14091.074       4.2085000      -2.9907500      0.26150000       341.31500       1.9942519     0.010817949
       2023.0000       288.79619       98939.524       13917.132       3.6382500      -1.8432500     -0.29850000       341.27500       1.9757752     0.011266199
       2028.0000       288.77696       98944.653       13833.029       2.0932500      -1.0662500      0.49625000       341.94500       2.0085807     0.010972123
       2033.0000       288.83817       98940.339       13803.704       4.0052500      -4.1662500     -0.22275000       341.44600       1.9857051     0.011426627
       2038.0000       288.85796       98934.230       13781.589       2.0252500      -1.4402500      0.86425010       341.94300       2.0017161     0.011256845
       2043.0000       288.89501       98915.395       13799.715       4.6922500      -2.5607500      0.19975000       341.52800       1.9930891    0.0099858790
       2048.0000       288.91121       98911.876       13811.584       4.3192500      -2.0192500      0.40875000       341.56600       2.0219446     0.013550391
       2053.0000       288.88653       98911.522       13823.601       5.7520000      -3.7050000      0.28175000       341.49400       2.0174786     0.011731074
       2058.0000       288.90037       98914.086       13865.751       4.7255000      -4.1182500     -0.10650000       341.52200       1.9739735    0.0097116053
       2063.0000       288.93809       98933.785       13929.594       3.4245000      -4.0852500     -0.59550010       341.56600       2.0025042     0.011481675
       2068.0000       288.95827       98939.414       13995.622       4.2117500      -3.9585000      0.12175000       341.60500       1.9211819     0.012834906
       2073.0000       288.98190       98939.783       14101.856       3.7335000     -0.99550000      0.43875000       341.87800       2.0049006     0.011454500
       2078.0000       289.01195       98935.337       14175.649       3.7717500      -1.1657500     0.041250000       341.83300       1.9973631     0.012390436
       2083.0000       289.03787       98918.166       14250.543       3.9887500      -2.0015000     -0.52175000       341.63500       1.9679027     0.010627512
       2089.0000       289.06142       98911.035       14293.524       3.5295000      -1.6475000      0.14650000       341.85500       1.9651923     0.010086420
       2094.0000       289.11170       98901.199       14314.972       3.0797500     -0.72525000     -0.30375000       341.93200       1.9942392     0.011059314
       2099.0000       289.10912       98904.120       14295.225       4.0870000      -3.3295000      -1.8965000       341.46100       2.0359816     0.011177191
       2104.0000       289.04704       98922.684       14206.120       4.0807500      -5.2950000      0.54875000       341.56100       1.9692019    0.0099276106
       2109.0000       289.04341       98930.062       14175.963       3.6782500     -0.58225000       1.0895000       341.86800       1.9799443     0.012617743
       2114.0000       289.04351       98941.181       14139.174       4.0387500      -3.3300000      -1.5810000       341.43700       1.9414995    0.0099906875
       2119.0000       289.04988       98943.700       14122.506       2.7745000      -1.9715000     -0.61050000       341.44700       1.9962821     0.012031723
       2124.0000       289.11043       98939.412       14158.607       2.5755000      -1.4477500     -0.16525000       341.86300       1.9810355     0.010602176
       2129.0000       289.10774       98932.567       14145.734       3.6175000      -1.3540000    -0.047000000       341.55600       2.0415816     0.014878909
       2134.0000       289.03589       98913.226       14076.780       3.8702500      -1.4380000      0.47525000       341.68100       1.9586300     0.010375461
       2139.0000       289.04830       98912.264       14094.705       3.8387500      -1.5892500     -0.68850000       341.60800       2.0015348     0.010905980
       2144.0000       289.10593       98916.851       14158.745       3.1797500      -2.6757500    -0.045000000       341.94500       1.9753285     0.010317787
       2149.0000       289.09954       98920.735       14179.144       2.3617500      0.14150000     -0.10250000       342.04700       1.9890256     0.011158147
       2154.0000       289.12468       98939.799       14260.057       6.0487500      -1.3442500    -0.031750000       341.24200       1.9882334     0.010182817
       2159.0000       289.09603       98945.371       14253.401       5.3542500      -1.4665000      0.32225000       341.52900       1.9699561    0.0099188713
       2164.0000       288.94699       98943.437       14134.620       2.6697500      -4.4540000      0.14675000       341.49000       1.9877822     0.010867263
       2169.0000       288.91501       98938.525       14105.552       3.2417500      -1.9322500      0.57700000       341.90900       1.9560938     0.010491878
       2174.0000       288.96485       98928.941       14110.491       2.4880000      -2.8180000      0.57400000       341.66000       1.9682854    0.0091500061
       2180.0000       288.93203       98919.750       14071.226       4.2502500      -1.5072500     -0.31775000       341.72200       1.9559399     0.010760939
       2185.0000       288.92231       98902.272       14076.916       3.9082500      -2.7485000     -0.74525000       341.53900       1.9445389     0.010124487
       2190.0000       288.87402       98902.737       14004.155       4.2557500      -1.7320000     0.012250000       341.62400       1.9753558     0.011138419
       2195.0000       288.74033       98912.873       13854.360       4.2232500      -1.8870000      0.40575000       341.61400       2.0082239     0.010735130
       2200.0000       288.71679       98919.643       13773.488       4.6187500      0.33850000      0.14050000       341.58200       1.9871695     0.011270957
       2205.0000       288.74347       98936.786       13683.496       2.8470000    -0.051500000       1.0595000       342.06400       2.0124251     0.010306991
       2210.0000       288.75215       98940.290       13627.163       2.4725000      -1.9967500    -0.073250000       341.82000       1.9819440     0.010706607
       2215.0000       288.80344       98938.673       13599.215       3.6380000      -1.2245000      0.22550000       341.88300       1.9790243    0.0098966162
       2220.0000       288.81468       98932.235       13594.185       5.1832500      -3.0582500       1.4865000       341.66700       1.8723595     0.012716004
