MIRICO/SHELL project - Processed LDS file generated on
Wed Jul 26 00:12:06 2017
Time stamp for record start
05/12/2017  13:23: 0.0001
Nb of points in the record
         440
Beam position index
       6.0000000
Beam angle (degrees)
       13.594000
Open Path length (m)
       58.300000
****************** Temporal data record ************************
Elapsedtime_sec Temp_K Press_Pa Humidity_ppmv WindX_m/s WindY_m/s WindZ_m/s Speedofsound_m/s CH4vmr_ppmv CH4vmrerror_ppmv  
      0.00000000       288.95487       98906.292       13790.714       3.9052500      -1.8842500       1.1360000       341.66400       1.9900677     0.020022010
       4.9999729       288.93000       98905.274       13779.355       4.0835000      -1.1687500      0.58625000       341.80400       1.9943989     0.016190549
       9.9999860       288.97532       98904.194       13793.500       3.9195000     -0.42350000      0.79275010       341.66500       2.0091919     0.027311957
       14.999999       288.99407       98905.142       13807.405       5.3057500      -1.7075000      0.35800000       341.48700       1.9444727     0.014771218
       19.999972       289.02512       98906.090       13841.565       5.4817500      -4.0090000     -0.16400000       341.41300       1.9018784     0.015183739
       24.999985       289.11244       98904.459       13927.189       4.6130000      -1.7237500       1.4557500       341.75900       2.0103657     0.015529393
       29.999998       289.12950       98905.566       13980.813       3.6510000      -3.3552500    -0.050750000       341.83100       1.9790735     0.023681209
       34.999971       289.08815       98911.053       14004.471       4.0332500      -1.2620000      0.57425000       342.00700       1.9571206     0.015168206
       39.999984       289.19085       98910.189       14181.352       4.9547500      -1.6185000     -0.81350000       341.75700       1.9728199     0.018511852
       44.999997       289.21404       98910.129       14263.069       3.6125000      -1.9302500    -0.046250000       341.50200       1.9953170     0.014852046
       49.999970       289.18053       98911.890       14315.067       5.3870000      -1.5425000      0.14600000       341.73300       1.9223240     0.017409696
       54.999983       289.20046       98911.047       14357.722       3.9447500      -2.0540000     -0.42050000       341.52500       2.0011096     0.022426041
       60.999991       289.15909       98905.320       14287.699       6.4275000      -1.4507500      0.29300000       341.55200       2.0501848     0.020826452
       65.999964       289.18374       98904.373       14270.637       6.8567500     -0.12375000     -0.27525000       341.34400       2.0283647     0.017275709
       70.999977       289.34679       98906.123       14295.590       4.7530000     0.034500000      0.10950000       341.95800       1.9360941     0.017931277
       75.999990       289.42423       98905.154       14306.539       4.1687500      -1.3102500       1.5932500       342.06300       2.0375519     0.016323826
       80.999963       289.50755       98904.477       14325.519       7.2360010      0.13150000    -0.059500000       341.39900       2.0226636     0.023484545
       85.999976       289.52289       98905.522       14333.862       5.6302500     -0.80325000    -0.028750000       341.67500       2.0064447     0.018557382
       90.999989       289.43065       98908.945       14357.534       5.0592500      -1.8010000      0.63700000       342.10200       1.9934967     0.014262229
       95.999962       289.39013       98905.718       14339.906       5.7492500     -0.76050000     -0.18250000       341.63700       2.0497579     0.018786064
       100.99998       289.30496       98892.005       14280.350       5.8075000     -0.79400000     -0.80125000       341.79600       2.0602386     0.017763459
       105.99999       289.27890       98893.486       14236.810       6.2967500     -0.67975000     0.093000000       342.04100       1.9503303     0.015826430
       111.00000       289.33356       98907.352       14154.312       6.5255000     -0.99475000     -0.34425000       341.39800       1.9897262     0.021816074
       115.99997       289.35355       98906.180       14107.932       7.2520000       1.3800000      0.45675000       342.43800       2.0800644     0.024167881
       120.99999       289.36221       98901.292       14082.099       6.0982500     -0.44825000     -0.17750000       341.32900       1.9839876     0.024591611
       126.00000       289.40405       98906.426       14075.732       2.0910000     -0.80500010       1.4075000       342.63300       2.0163863     0.019999622
       130.99997       289.45527       98909.351       14095.219       4.5922500      -1.0267500      0.23500000       342.33900       2.0920116     0.021909246
       135.99999       289.50670       98904.363       14117.521       7.3252500      -2.1382500     -0.87975000       341.39000       1.9988549     0.017343218
       141.00000       289.62965       98901.451       14151.643       5.9362500      -3.1027500     -0.82950000       341.36100       1.9760062     0.023515947
       145.99997       289.67521       98906.450       14201.573       7.3200000      -2.9037500     -0.11425000       341.23500       2.0207553     0.028793515
       151.99998       289.64388       98908.352       14297.735       9.5820010     -0.87150000      0.35850000       341.77700       1.9952244     0.014275679
       156.99999       289.65368       98903.415       14345.367       7.3970000      -2.2492500     -0.22200000       341.28800       1.8796608     0.014412168
       161.99997       289.62932       98902.738       14390.974       3.8552500      0.62425010       1.1210000       342.93700       2.0292198     0.019053895
       166.99998       289.64726       98907.827       14431.559       6.9880000      -2.4530000     -0.16175000       341.08600       1.9355700     0.017342930
       171.99999       289.71976       98908.509       14421.857       3.6622500      -2.1037500      0.90275000       342.59700       2.0542818     0.040425962
       176.99997       289.77020       98903.453       14464.323       6.0477500      -1.4320000       1.0102500       342.30600       2.0384751     0.025834667
       181.99998       289.80784       98904.595       14557.605       6.1467500      -3.9472500      0.28975000       342.15500       1.9799134     0.023480179
       186.99999       289.87155       98906.851       14614.342       5.7090000      -1.5602500      0.14925000       341.84200       1.9691904     0.015136208
       191.99996       289.95821       98895.441       14653.962       5.7080000      -3.3550000      0.24025000       341.60900       1.9288635     0.018974448
       196.99998       290.02754       98891.961       14727.023       4.5445000      -2.0165000     -0.90975000       341.82800       1.8454126     0.025105744
       201.99999       290.14106       98903.883       14817.161       4.5110000      -1.7312500     -0.37050000       342.30300       1.9588269     0.025638605
       206.99996       290.17926       98908.167       14876.792       7.2752500      -3.8490000     -0.69750010       341.93900       1.9781343     0.020365327
       211.99998       290.16926       98905.888       14973.934       5.5242500      -1.6757500      0.68725000       342.77000       1.9238437     0.018717307
       216.99999       290.15153       98904.862       15012.064       4.3615000     -0.53475000      0.48825000       343.08200       1.9304854     0.017463814
       221.99996       290.06621       98905.772       14979.787       6.7992500      -1.1282500     -0.58525000       342.10800       1.9457407     0.014816949
       226.99998       290.02981       98905.338       14965.088       4.1282500      0.12825000      0.43100000       342.92500       1.9254406     0.016256717
       231.99999       290.00437       98899.448       14939.459       4.3080000      -2.5582500     -0.71575000       341.35300       1.8820410     0.014752519
       237.00000       289.98826       98899.188       14910.721       3.1545000      -3.0042500      0.15375000       342.78000       1.8691877     0.016334059
       242.99997       290.00000       98905.614       14856.770       6.1837500      -3.0067500      0.29550000       342.17500       1.9195026     0.017195371
       247.99998       289.99989       98905.970       14832.493       6.4990000      -3.1492500     0.023000000       341.47300       1.9158748     0.011464097
       253.00000       290.00073       98902.761       14797.571       4.3850000      -2.8685000      0.20675000       342.44700       1.9994057     0.015531367
       257.99997       290.00102       98907.103       14805.939       5.4722500      -3.5062500      0.27650000       341.79600       1.8991916     0.016000970
       262.99998       290.02222       98918.439       14881.607       7.1660000      -1.2895000    -0.091000010       342.06600       1.9388981     0.017230107
       267.99999       289.98967       98914.913       14871.758       6.7780000     -0.90600000     -0.53750000       341.66200       1.8673572     0.014044267
       272.99997       289.92560       98902.987       14827.311       6.2157500      -1.7377500     -0.28500000       342.10700       1.9127460     0.012217980
       277.99998       289.86928       98905.104       14817.748       5.7302500      -1.8555000     -0.27775000       342.06000       1.8701542     0.015977575
       282.99999       289.77066       98907.292       14762.619       3.2872500     -0.35975000       1.0780000       342.93000       1.8888025     0.014271912
       287.99997       289.70743       98902.359       14755.303       6.5360000     -0.88950000    -0.043250000       341.89500       1.8853419     0.013066711
       292.99998       289.68270       98903.645       14858.953       5.8292500      -2.1425000     -0.58900000       342.49100       1.9397884     0.012298950
       297.99999       289.61590       98908.630       14817.776       5.4870000     -0.25500000     -0.18975000       342.16800       1.9850106     0.013929489
       302.99997       289.51698       98905.344       14697.484       6.3445000      -2.1050000     -0.28925000       341.23900       1.9027560     0.015365966
       307.99998       289.46302       98903.566       14613.757       5.2822500     -0.83400010    -0.083750000       341.92800       1.9601797     0.012958189
       312.99999       289.37849       98916.068       14454.296       5.6742500      0.28550000     -0.63350000       341.36600       2.0115755     0.011821928
       317.99996       289.38312       98918.610       14376.143       7.4922500   -0.0055000000     -0.40325000       341.73900       2.0079967     0.012449243
       322.99998       289.46261       98902.576       14324.503       7.1117500      -1.8932500     -0.71075000       342.03400       2.0875852     0.015995809
       327.99999       289.53485       98903.772       14341.315       4.9627500      -1.0535000      0.56350000       342.33500       1.9506543    0.0094631577
       334.00000       289.67973       98922.671       14412.250       4.9312500      -1.3695000    -0.038750000       341.87800       2.0402698     0.012627380
       338.99997       289.77904       98922.309       14521.050       4.8340000     -0.89875010     -0.87725000       342.00400       2.0677155     0.023054530
       343.99998       289.91489       98914.443       14739.399       4.0967500     -0.12625000      0.48825000       342.41900       2.0034461     0.011891513
       349.00000       289.93976       98916.296       14869.862       5.6285000      -1.8770000      0.12200000       342.13800       1.9148516     0.017950179
       353.99997       289.91384       98917.780       15016.580       4.0862500      -2.4800000    -0.049500000       342.22000       1.9136504     0.015560313
       358.99998       289.89677       98911.004       15081.223       5.9560000      -3.1282500     -0.29750000       341.31700       1.9436010     0.017349289
       364.00000       289.79377       98903.363       15097.181       4.4127500      -3.4242500     -0.45225000       341.72900       1.9878266     0.011846706
       368.99997       289.77107       98906.067       15074.323       2.7492500      -1.9977500     -0.19375000       342.28100       1.9045899     0.014638181
       373.99998       289.79999       98906.304       14987.137       3.8655000      -1.6557500      0.12550000       342.59600       1.9555730     0.011863709
       379.00000       289.79999       98901.373       14915.236       4.0967500     -0.51375000     -0.85875000       342.12500       1.9631510     0.018545905
       383.99997       289.78114       98906.330       14785.651       4.7160000      -1.2147500     -0.39950000       341.48200       1.7735456     0.020758136
       388.99998       289.81899       98907.431       14739.745       6.6407500       1.0585000     0.071250010       341.25400       1.6938582     0.026000893
       394.00000       289.88332       98893.672       14716.336       4.4950000      -1.3180000    -0.095000010       342.68700       1.9766830     0.011339324
       398.99997       289.94232       98892.132       14713.072       6.3135000     -0.37500000      0.24375000       341.66800       1.9778283     0.016520710
       403.99998       290.06283       98905.711       14776.651       5.9045000     -0.61175000     -0.45125000       341.45800       1.9598359     0.010540000
       408.99999       290.08690       98909.016       14771.086       5.5452500      -3.0142500     -0.50325000       342.81100       1.9238070     0.012548758
       413.99997       290.03060       98902.834       14722.715       2.6940000      -1.2725000       1.1640000       343.04100       1.9139855     0.016956951
       418.99998       290.07790       98907.440       14748.973       4.0300000      0.51675000      0.88750000       342.85300       1.8867869     0.014520369
       424.99999       290.13078       98922.992       14786.534       5.4697500       1.7055000      0.22150000       341.81000       1.9361563     0.010613903
       430.00000       290.22327       98921.647       14845.960       3.7742500     -0.54150000   -0.0060000000       342.16100       2.0012094     0.012402617
       434.99997       290.40995       98914.779       14957.544       4.9512500      0.20450000     -0.30200000       342.17900       1.9289207     0.012265651
       439.99999       290.49768       98916.874       15077.261       5.5900000     -0.77200000     -0.42325000       341.84300       1.8945583     0.015222963
       445.00000       290.55501       98916.418       15185.295       6.5002500      0.68175010     -0.13200000       342.01600       1.9966398     0.011389703
       449.99997       290.60057       98903.155       15454.146       4.6710000    -0.089000000      0.20075000       341.80800       2.0192485     0.011855707
       454.99999       290.65099       98903.806       15638.029       5.7795000      -1.9097500    -0.090750000       341.30800       1.8967914     0.013501669
       460.00000       290.71539       98905.804       15835.116       3.7547500      0.63875000    -0.052000000       342.17100       2.0002832     0.010461120
       464.99997       290.75625       98903.478       15953.154       3.9160000      0.31225000     -0.60800000       342.24100       1.9389570     0.011030721
       469.99999       290.78481       98904.833       16004.055       2.0612500    -0.051500000     -0.13975000       343.08800       1.8989976     0.012858687
       475.00000       290.79312       98923.745       15960.086       3.0307500      0.57775000      0.77650000       342.82100       1.9223167    0.0089613300
       479.99997       290.84468       98924.001       15940.062       4.7207500     -0.73500000     -0.11200000       341.86200       1.9068973    0.0099661086
       484.99998       290.89987       98907.988       15866.564       3.5635000     -0.54100000    -0.073250000       342.76500       1.8999188     0.010030077
       490.00000       290.97069       98923.879       15842.491       2.5020000     -0.61650000     -0.34475000       342.61100       1.9271597    0.0086126215
       494.99997       291.01380       98923.615       15818.679       3.2937500      -1.4532500      0.15125000       343.14200       1.8443860     0.015923117
       499.99998       291.03008       98904.664       15833.803       4.0245000      0.21925000     -0.38150000       342.16600       1.8749938     0.012561064
       505.00000       291.01250       98903.351       15803.275       2.3345000      -1.1235000     -0.17625000       343.41400       1.9187732     0.011868240
       510.99996       290.96043       98906.396       15743.623       4.3422500      -2.5022500      0.52375000       343.03300       1.7610980     0.021481791
       515.99998       290.89852       98903.612       15666.848       3.7645000      -1.3385000      0.38400000       343.26200       1.8388358     0.013820966
       520.99999       290.75305       98910.977       15525.974       2.8690000     -0.38275000      0.52650000       342.09400       1.8843982     0.010064478
       525.99996       290.67549       98917.666       15416.478       3.7300000    -0.054750000     0.029000000       343.15700       1.8982580    0.0093078200
       530.99998       290.64843       98913.458       15325.871       3.4937500      -1.4795000      0.46150000       343.25300       1.9099668     0.010425177
       535.99999       290.58778       98913.747       15204.771       3.3160000     -0.49550000      0.93150000       342.32200       1.8750495     0.013819595
       540.99996       290.51685       98927.418       15019.086       4.5997500      -2.2120000      0.47925000       342.42100       1.9027622     0.012585607
       545.99998       290.48752       98933.180       14933.960       2.4712500     -0.90250000      0.49250000       343.32000       1.8270860     0.014476064
       550.99999       290.43868       98930.306       14858.325       4.4085000     -0.47375000     -0.10175000       342.63800       1.9189385    0.0094059066
       556.00000       290.43230       98930.288       14840.582       3.2812500    -0.019000000      0.36350000       344.37100       1.8880994    0.0088087292
       560.99997       290.59738       98937.488       14999.551       5.2130000      -1.8605000      0.10325000       342.67900       1.9278740     0.011077389
       565.99999       290.57896       98931.732       15040.764       4.1915000      -2.7410000      0.64525000       342.30200       1.8241834     0.011863294
       571.00000       290.41973       98906.457       15053.178       3.9385000     -0.23800000     -0.31875000       342.12900       1.8608074     0.010684461
       575.99997       290.33825       98902.226       15036.010       4.4540000      0.13025000     -0.74200000       341.79500       1.9097031     0.010284286
       580.99999       290.17571       98909.480       14958.235       5.4490000      -2.0397500     -0.26375000       341.31000       1.8919678    0.0098123591
       586.00000       290.05864       98904.535       14863.500       3.1362500      0.50575000      0.68625000       343.13200       1.7971381     0.015017150
       590.99997       290.03145       98901.322       14733.867       4.4432500     -0.80050000      0.38050000       342.16000       1.8904719     0.010620779
       595.99999       289.99171       98906.300       14619.365       4.6422500      0.88075010      0.18700000       342.31600       1.7998606     0.016812157
       601.99999       289.88392       98904.454       14393.505       2.9007500      0.80125000      0.11950000       342.94300       1.8239342     0.011634337
       606.99997       289.87843       98903.571       14326.753       4.0092500      0.22875000      0.30700000       342.81200       1.8832437     0.010381383
       611.99998       289.97445       98921.846       14340.966       5.4877500      0.92000000      0.12025000       341.83400       1.8967617     0.015016201
       616.99999       290.01463       98924.597       14359.231       5.1415000      -1.2727500      0.20000000       342.49500       1.9153410     0.010789871
       621.99997       290.08926       98903.844       14473.474       4.7250000     -0.70075010      0.16225000       341.94300       1.9137892     0.011940423
       626.99998       290.12231       98902.753       14544.114       5.8205000      0.24225000    -0.095250000       341.90700       1.8613246     0.028981144
       631.99999       290.12633       98918.799       14612.520       4.6980000      -1.9532500     -0.27700000       342.25900       1.8495995     0.010670926
       636.99996       290.09936       98916.402       14656.985       4.3655000    -0.063500000     -0.20850000       341.86900       1.8862649     0.010504988
       641.99998       290.03714       98903.218       14696.760       3.3922500      0.38125000       1.0565000       343.31500       1.8940671    0.0093973482
       646.99999       289.98396       98904.954       14715.299       4.5522500      -1.5647500      0.36275000       342.91500       1.8934647     0.011464479
       651.99996       289.88561       98905.288       14712.752       3.5215000      -2.4165000      0.36550000       343.23700       2.0367239     0.011733837
       656.99998       289.81921       98903.071       14683.628       2.7777500     -0.72575000      0.60100000       343.96000       2.1148464     0.011247034
       661.99999       289.79269       98916.245       14639.085       2.2362500      -2.1545000      0.77125000       342.17000       2.7472917     0.019091560
       666.99996       289.72838       98918.435       14572.497       4.2885000      -1.2180000    -0.021250000       342.75700       2.6099288     0.015325040
       671.99998       289.63993       98897.806       14485.233       5.6880000      0.52350000      0.13750000       342.10200       3.1445002     0.027157418
       676.99999       289.56961       98896.984       14363.240       4.4017500      -1.4702500     0.014250000       342.12900       5.5815783     0.019881959
       681.99996       289.44546       98918.293       14154.044       3.2430000      -1.7892500     -0.22650000       343.02800       3.8200083     0.024026344
       686.99998       289.42118       98917.380       14055.778       1.8020000     0.075250010      0.73925010       343.40600       3.4776952     0.021564859
       692.99998       289.49577       98903.361       13959.101       5.4895000      -1.7637500      0.36250000       341.84800       2.1809488     0.011856505
       698.00000       289.50561       98905.569       13907.862       3.5877500     -0.68800000       1.0012500       342.35900       2.9301460     0.013221811
       702.99997       289.55708       98904.657       13943.974       4.4855000      0.70725010      0.84150000       342.42200       3.0961795     0.017554795
       707.99998       289.56410       98902.947       13954.450       5.7872500      0.18750000      0.56375000       342.23600       2.5259964     0.013121558
       713.00000       289.49073       98916.052       13927.696       4.8505000      0.17250000      0.65475000       342.07500       4.8128176     0.014681526
       717.99997       289.49347       98918.688       13977.087       6.1125000      -2.0462500      0.83500000       342.17800       2.9322155     0.015306655
       722.99998       289.53154       98902.376       14088.233       4.3845000      -1.7507500      0.16500000       341.88700       2.9644176     0.011424245
       727.99999       289.56774       98903.372       14190.775       4.3827500     -0.94500010      0.24250000       342.19800       6.5797705     0.021000138
       732.99997       289.63011       98924.284       14314.140       5.0652500      -1.1335000      0.55775000       342.56900       4.3441550     0.012446163
       737.99998       289.67964       98921.572       14460.081       3.1577500      0.11975000      0.52325000       342.07400       3.4343752     0.012095688
       742.99999       289.74081       98906.158       14658.369       3.8220000     -0.71350000    -0.039500000       342.00500       4.5085251     0.019373755
       747.99997       289.77454       98903.768       14781.288       5.9727500      -1.5102500     -0.80650000       341.91500       3.7241479     0.016715584
       752.99998       289.81007       98894.507       14948.963       6.8942500      -2.0520000     -0.67850010       341.87500       2.7562714     0.013102887
       757.99999       289.80764       98891.981       14970.658       6.9230000      -2.2415000     -0.12650000       341.82100       2.9270643     0.011799194
       762.99997       289.77960       98905.734       14868.406       4.3182500     -0.46475000     -0.51950000       342.18000       3.2491291     0.018059689
       767.99998       289.72727       98907.844       14777.945       5.6420000      -1.4902500      0.93625000       342.23100       2.4942780     0.013010056
       772.99999       289.60504       98897.109       14597.121       2.7262500      0.59650000       1.0680000       342.44000       3.5314641     0.013156870
       777.99996       289.56808       98900.655       14472.233       4.2585000     -0.94300000    -0.023000000       342.30000       4.6319684     0.020476608
       783.99997       289.53150       98918.552       14305.274       3.4362500      0.60175000    -0.083250000       341.77500       2.5274868     0.023826306
       788.99999       289.54747       98915.310       14239.428       2.9870000    -0.052000000      0.67050000       342.10900       2.1198505     0.012181420
       794.00000       289.63905       98903.822       14192.214       4.3682500      0.13800000     -0.17650000       341.53000       2.7234007     0.014216579
       798.99997       289.68945       98906.520       14206.133       3.0232500      -2.1047500     -0.32250000       342.27000       5.9047840     0.016342912
       803.99998       289.74884       98903.806       14305.102       4.2577500      -1.0160000     -0.38550000       341.88700       3.7659373     0.018282268
       809.00000       289.78045       98904.422       14358.090       6.4370000      -4.5365000       1.2320000       341.71300       5.2023989     0.016656372
       813.99997       289.80331       98923.426       14427.102       6.5192500      -3.0990000     -0.78625010       341.92500       2.6409534     0.011399436
       818.99998       289.81484       98923.295       14495.683       6.2422500     -0.67625000      0.28575000       341.96700       3.8314605     0.012300156
       824.00000       289.80891       98901.497       14569.833       6.9165000      0.61175000      0.22450000       341.54200       5.5744369     0.016065763
       828.99997       289.79028       98904.677       14606.863       5.3397500      0.51275000      0.17250000       342.48900       2.1169822     0.010253187
       833.99998       289.74619       98923.794       14645.504       6.6430000      -3.6570000     -0.66575000       342.12200       5.9098766     0.013656483
       839.00000       289.74538       98919.388       14661.871       4.4232500      -1.1560000      0.73900000       342.52300       2.3561138     0.016965844
       843.99997       289.74369       98911.094       14621.457       4.2167500     -0.48700000      0.63275000       342.47600       2.3715739     0.010270001
       848.99998       289.75253       98909.310       14639.605       5.8382500     -0.39600000      0.11475000       341.80200       3.4397856     0.011988457
       853.99999       289.82981       98892.173       14711.969       4.2967500      -1.3287500      0.30475000       342.26700       3.5288482     0.014448695
       858.99997       289.78505       98891.356       14684.158       4.6197500      -1.8820000     -0.46100000       342.34800       5.0366508     0.020382688
       863.99998       289.67057       98913.915       14633.744       3.7022500      -1.8180000      0.70500000       342.14500       3.1446147     0.017428098
       868.99999       289.59246       98911.637       14560.578       5.6395000      -2.1670000    -0.029750000       341.84400       4.3573454     0.026896961
       875.00000       289.43139       98892.103       14384.365       4.8130000      -3.0647500     -0.21075000       341.96700       4.1580765     0.017143780
       879.99997       289.38488       98896.560       14298.821       4.1582500      -1.6412500     -0.23850000       342.13600       3.4154049     0.017339612
       884.99999       289.40110       98904.451       14244.293       3.7810000      -1.5815000      0.38850000       342.15300       3.4285973     0.012326912
       890.00000       289.37128       98907.718       14153.723       4.4605000      -2.1102500     -0.20900000       341.68500       2.7859982     0.015766969
       894.99997       289.34480       98923.796       14039.060       5.5265000    -0.044500000     -0.31550000       341.88700       2.6782360     0.015546373
       899.99999       289.34538       98904.249       14007.215       4.6827500      0.18525000     -0.35925000       341.70900       3.7471813     0.022678982
       905.00000       289.34392       98901.290       13998.829       4.1410000      -1.0417500     -0.62750010       342.48900       5.6391160     0.015852142
       909.99997       289.38517       98922.888       14086.486       4.3475000     -0.54050000      0.52675000       342.08200       3.3024967     0.011549999
       914.99999       289.40623       98923.513       14150.660       4.0035000      -1.5140000      0.69025000       342.37200       4.9715212     0.015376624
       920.00000       289.41501       98918.000       14211.683       3.2330000     -0.56700000     0.060250000       342.28800       3.1019459     0.018775085
       924.99997       289.38652       98911.285       14254.526       3.2680000    -0.053000000      0.84700010       342.34600       2.3618600     0.011436855
       929.99998       289.42958       98909.024       14344.498       3.0205000    -0.010250000      0.51850000       342.08600       3.5641845     0.016084401
       935.00000       289.50596       98890.616       14462.596       4.1970000     -0.63125000     -0.56750010       342.11800       3.9252595     0.019977325
       939.99997       289.52478       98919.419       14539.946       4.5832500     -0.74275000      0.23850000       341.29900       2.6511073     0.018617922
       944.99998       289.55594       98925.656       14615.885       5.8062500     -0.49200000      0.61375000       341.50000       3.6959835     0.019781458
       950.00000       289.54501       98903.263       14667.744       4.1780000      0.22700000     -0.69550000       341.86100       3.2253071     0.020188108
       954.99997       289.54396       98902.864       14701.239       5.0367500     -0.79725000   -0.0022500000       341.83500       4.7356955     0.032304278
       959.99998       289.60003       98910.308       14760.089       5.6022500      -1.1647500      0.12025000       341.45800       3.2059086     0.011883592
       965.99999       289.61203       98909.092       14769.466       5.8260000      -2.0690000     -0.14175000       341.34600       7.0783480     0.029299461
       970.99996       289.55263       98926.089       14684.389       5.2580000      -1.1135000      0.10650000       341.51200       2.6238213     0.016399883
       975.99998       289.54410       98930.230       14656.009       4.5490000      0.42600000     -0.58150010       341.58200       3.9053235     0.017107835
       980.99999       289.53020       98904.472       14615.412       3.5102500     -0.87425010      0.46500000       342.10500       3.4255648     0.012134823
       985.99996       289.54267       98901.385       14606.654       5.0187500     -0.85325000      0.18650000       341.65000       2.0014301     0.012920014
       990.99998       289.62478       98919.367       14651.455       2.9490000      -1.1715000      0.19625000       342.11400       4.2731424     0.021188182
       995.99999       289.66407       98922.218       14687.651       3.3715000      0.24700000      0.65575000       341.91100       4.5441416     0.025035960
       1001.0000       289.70476       98923.387       14736.992       5.2840000     -0.77625010     0.013500000       341.80400       3.7986730     0.019881330
       1006.0000       289.71222       98927.083       14776.921       2.3980000      -1.2895000      0.96000000       342.30600       4.2223041     0.018815938
       1011.0000       289.68131       98918.230       14843.068       4.6435000      -1.3122500     -0.49425000       341.73800       5.1655147     0.017552910
       1016.0000       289.64973       98917.718       14862.339       5.4030000     -0.76075010     -0.56325000       341.39800       4.6352110     0.015423161
       1021.0000       289.56172       98939.843       14817.475       4.3257500    -0.084750000     -0.21450000       341.74000       3.2607036     0.014719094
       1026.0000       289.53405       98938.644       14824.845       6.1560000     -0.99575010     -0.33975000       341.63300       2.9611642     0.017831751
       1031.0000       289.58646       98911.468       14869.225       3.9005000     -0.19225000      0.66375010       341.87100       5.6835307     0.028484359
       1036.0000       289.55428       98906.828       14855.530       4.1140000      0.70925000      0.48375000       341.82700       6.4784181     0.023618848
       1041.0000       289.51571       98903.055       14892.042       2.4455000     -0.17800000      0.36725000       342.55300       4.9233897     0.017795698
       1046.0000       289.45186       98901.831       14829.334       3.0297500     -0.31450000    -0.049500000       342.33300       3.3157141     0.019520977
       1051.0000       289.27593       98929.686       14628.457       2.9847500     -0.38625000      0.11150000       342.39500       2.3838202     0.024268633
       1057.0000       289.15080       98935.736       14450.559       3.2030000      -1.9020000     0.077750000       342.27100       3.7071570     0.020062672
       1062.0000       289.05956       98915.059       14244.012       2.6670000     -0.19225000    -0.054750000       342.10900       5.7041022     0.032365547
       1067.0000       289.02094       98913.173       14118.043       2.8632500     -0.43500000     0.026750000       342.40900       4.4401781     0.028856093
       1072.0000       289.05600       98913.216       14044.185       2.6375000      -1.8190000       1.1750000       342.17300       5.6329756     0.027777389
       1077.0000       289.04562       98914.254       13975.507       2.3365000     -0.31625000     0.040500000       342.44600       3.2032325     0.026129326
       1082.0000       289.04363       98932.706       13921.674       3.3042500     -0.67700000      0.30575000       342.18900       4.3276796     0.032821677
       1087.0000       289.05359       98933.589       13919.175       3.0577500     -0.93525000      0.29850000       342.44500       5.0715658     0.027388092
       1092.0000       289.05617       98913.797       13973.816       3.0885000      -1.7332500      0.34375000       342.26400       6.7075407     0.037449919
       1097.0000       289.04628       98913.316       13999.399       4.7625000     -0.34300000      0.26200000       342.22300       2.9048893     0.028721800
       1102.0000       289.04456       98916.529       14049.402       5.0955000      -2.4045000      0.29075000       341.74800       4.1883511     0.031990938
       1107.0000       289.05446       98919.707       14107.654       4.5440000     -0.70425000      0.71375000       341.62100       9.1949811     0.029315237
       1112.0000       289.05592       98941.894       14160.664       2.5400000      -1.3962500     0.099000010       342.07500       4.1910375     0.028394704
       1117.0000       289.04554       98944.198       14201.803       3.8350000     -0.69350000      0.21950000       342.03500       4.5214944     0.027744756
       1122.0000       289.05674       98924.906       14277.026       2.2767500      -1.8532500     0.085500000       342.20600       4.4775271     0.031911587
       1127.0000       289.05318       98923.060       14316.533       4.0247500     -0.92950000     -0.80150000       341.95600       6.4251430     0.029522224
       1132.0000       288.99224       98923.240       14292.524       1.7397500    -0.081500000      0.71350000       342.14600       3.8879494     0.021265610
       1137.0000       288.99012       98924.412       14315.377       2.6450000      -1.4550000     0.010500000       341.99800       6.4296361     0.039199120
       1142.0000       289.06423       98938.719       14399.816       4.3002500      -2.6787500     -0.48100000       341.56800       2.3645208     0.025178396
       1148.0000       289.05257       98944.102       14389.369       4.6802500      -2.6420000     -0.51175000       341.22900       3.4480606     0.031763975
       1153.0000       289.02876       98940.381       14358.205       3.2827500      -4.0312500    -0.022750000       341.35700       2.2815683     0.028284838
       1158.0000       288.98569       98940.397       14297.113       3.9770000      -2.6495000     0.072500010       341.44300       3.5828721     0.030668389
       1163.0000       288.84932       98943.494       14136.069       3.8367500      -3.2465000     -0.66525000       341.63400       3.1233701     0.024525320
       1168.0000       288.81761       98938.538       14060.943       3.5017500     -0.88750000     0.019500000       341.79800       3.6552431     0.037733512
       1173.0000       288.83233       98925.393       14000.234       3.1597500      -1.3967500      0.70525000       341.97100       4.5741412     0.039016293
       1178.0000       288.85464       98922.639       13980.809       2.7645000      -1.4335000     -0.39700000       341.60800       3.5219646     0.026811628
       1183.0000       288.95220       98917.921       14023.655       2.8320000     -0.81450000      0.58150010       341.92700       4.2868151     0.033843982
       1188.0000       288.96933       98919.428       14021.639       4.5512500      -1.4062500     0.085500000       341.55100       6.1559254     0.030959722
       1193.0000       288.93511       98938.933       14005.150       4.3127500      -2.3602500       1.7187500       341.97000       5.1193045     0.039006214
       1198.0000       288.96155       98937.003       14045.556       3.8730000      -1.8717500      0.46875000       341.57300       5.8111690     0.033937234
       1203.0000       288.99663       98922.357       14100.266       3.8597500      -2.2617500       1.2332500       341.92300       3.5422206     0.029197723
       1208.0000       289.00675       98917.422       14149.420       4.4815000      -2.9732500     -0.65875010       341.48500       3.5442459     0.025258099
       1213.0000       289.04516       98901.436       14247.287       3.8442500     -0.85550000      0.21825000       341.92100       2.8594647     0.022472325
       1218.0000       289.06889       98902.749       14327.212       4.6062500      -2.7262500     -0.29950000       341.46300       2.7925523     0.027900386
       1223.0000       289.03168       98927.151       14365.367       3.1737500      -2.0180000     -0.26125000       341.61500       4.2678829     0.030604128
       1228.0000       289.05410       98927.911       14445.337       2.8900000      -1.1062500     -0.33300000       341.63400       3.0963462     0.038360806
       1234.0000       289.16710       98920.118       14628.249       2.3237500     -0.85925010     -0.17025000       341.73100       4.5937760     0.033465997
       1239.0000       289.16132       98921.079       14656.365       2.6862500      -1.9687500      0.18050000       341.73800       4.0318604     0.040223899
       1244.0000       289.10366       98911.538       14621.317       2.2370000      -1.8400000     -0.12525000       341.93900       4.3639744     0.049620175
       1249.0000       289.09347       98914.970       14618.083       2.9430000      -1.3770000      0.77350000       341.82800       4.6383253     0.038007987
       1254.0000       289.03273       98939.439       14543.438       3.9202500      -2.2917500     -0.49650000       341.60600       3.2691664     0.031247027
       1259.0000       289.04917       98937.440       14541.331       3.2657500      -1.6900000     -0.37375000       341.64500       2.5691338     0.028063502
       1264.0000       289.15039       98919.132       14605.055       2.5922500     -0.50800000      0.51375000       341.93300       5.4825112     0.033506749
       1269.0000       289.18190       98917.820       14617.788       2.4990000      -2.8635000      0.12575000       341.66800       3.3452826     0.033621850
       1274.0000       289.20267       98911.888       14606.763       2.8862500     -0.84150000     -0.31850000       341.91900       4.0038288     0.028909197
       1279.0000       289.21378       98915.166       14622.419       3.8647500      -1.4117500     -0.22925000       341.73200       2.6018994     0.019073546
       1284.0000       289.20034       98939.425       14638.535       3.8370000     -0.88900010      0.57550000       341.72200       2.4459073     0.032261382
       1289.0000       289.20045       98937.101       14665.170       3.4110000     -0.62050000     -0.32850000       341.77100       5.3839277     0.033932610
       1294.0000       289.20906       98919.674       14725.032       2.9935000      -1.2215000    -0.072750000       341.73200       4.0567976     0.037431018
       1299.0000       289.19033       98918.529       14727.351       4.4160000     -0.17900000     -0.57950000       341.60100       5.2778251     0.054416236
       1304.0000       289.15318       98912.178       14700.060       4.0695000      -1.9880000     -0.17975000       341.41000       5.5583315     0.030047079
       1309.0000       289.13319       98915.543       14694.002       3.7252500     -0.34000000      0.10300000       341.67000       4.0970473     0.037972437
       1314.0000       289.09692       98938.572       14663.109       3.1205000      -2.1760000      0.43225000       341.73900       6.4566283     0.032003056
       1319.0000       289.08579       98938.296       14656.535       5.6105000     -0.99850000     -0.13750000       341.25100       4.1240368     0.046275609
       1325.0000       289.10001       98924.605       14677.247       4.6405000     -0.53925000      0.25100000       341.45300       6.8020379     0.026895894
       1330.0000       289.09994       98923.687       14684.786       5.5200000     -0.10600000      -1.1872500       341.73200       6.7456269     0.047731851
       1335.0000       289.09975       98917.417       14684.822       2.4650000      -1.6642500      0.57200000       341.85400       4.8045726     0.046611517
       1340.0000       289.09963       98920.972       14694.241       1.9427500      -1.9225000     -0.15600000       341.74800       3.0835415     0.034144801
       1345.0000       289.10000       98939.100       14717.323       2.8442500     -0.78150000     -0.20125000       341.70600       4.3444388     0.041198004
       1350.0000       289.11512       98925.125       14732.891       2.1652500     -0.92800000     0.034000000       341.84200       4.0407296     0.036740331
       1355.0000       289.10667       98920.035       14717.190       2.4885000      -1.3415000      0.46850000       341.86000       4.8513977     0.041446513
       1360.0000       289.06957       98904.717       14646.479       2.2677500      -2.4285000       1.1407500       341.84200       3.8236185     0.043115371
       1365.0000       289.04966       98900.909       14610.679       2.3432500      -1.7092500      0.53150000       341.76300       4.4951469     0.047420427
       1370.0000       289.02976       98905.712       14580.589       3.6630000      -1.0822500      0.12275000       341.64600       4.7518719     0.038547858
       1375.0000       288.99359       98927.559       14535.990       4.0515000     -0.57775000     0.080000010       341.45300       2.3005804     0.037275442
       1380.0000       288.98501       98928.001       14522.785       2.3910000      -1.2457500      0.23200000       341.83900       7.6182326     0.050611456
       1385.0000       289.00645       98925.834       14547.545       3.4352500     -0.87475000      0.94000010       341.64200       4.2357331     0.031508585
       1390.0000       288.96917       98919.305       14541.290       3.8165000      0.38025000      0.38000000       341.38800       5.2829981     0.032295505
       1395.0000       288.94880       98917.725       14528.596       2.3847500      -1.1797500    -0.068750000       341.69500       3.7440306     0.028181069
       1400.0000       288.92967       98931.890       14515.040       3.5820000      -1.6275000     0.083750000       341.58900       5.6774962     0.045738209
       1405.0000       288.89992       98937.173       14490.752       3.9382500      -1.3435000      0.18950000       341.87800       5.2554417     0.037579377
       1410.0000       288.87042       98938.679       14444.191       3.2362500     -0.93850000    -0.079000000       341.84400       2.4249238     0.027499819
       1416.0000       288.84698       98936.255       14404.893       4.6165000     -0.79675000      0.16375000       341.57500       3.8638839     0.037272516
       1421.0000       288.79527       98920.015       14358.636       4.2427500      -1.8795000     -0.43500000       341.61300       4.6167452     0.041254291
       1426.0000       288.78799       98917.473       14338.546       3.7007500      -1.5517500      0.64200000       341.70600       5.4626082     0.045702600
       1431.0000       288.81996       98923.932       14340.985       3.5205000      -2.1897500     -0.17650000       341.43800       6.5107896     0.039802214
       1436.0000       288.85152       98925.035       14345.774       3.4667500      -2.6145000    -0.022500000       341.49600       4.1635066     0.028655950
       1441.0000       288.91061       98938.156       14342.627       3.5247500      -2.1907500     -0.68600000       341.57300       2.2394756     0.034171612
       1446.0000       288.96086       98938.535       14381.889       3.8820000     -0.40700000     -0.49000000       341.66800       4.9439317     0.035116111
       1451.0000       289.03893       98915.475       14481.790       4.6167500     -0.14575000     0.037000000       341.58900       3.6647194     0.027465724
       1456.0000       289.06619       98912.205       14531.978       2.9882500     -0.52250000      0.46400000       341.62700       2.1694442     0.029682097
       1461.0000       289.08647       98916.621       14622.689       3.2100000     -0.51450000      0.20400000       341.70800       5.9779129     0.038021528
       1466.0000       289.06215       98919.115       14645.268       2.5657500      -2.7565000     -0.40350000       341.35600       6.3747675     0.055089947
       1471.0000       288.91397       98941.908       14535.441       2.9010000      -1.6757500      0.25500000       341.73000       5.5939583     0.034538075
       1476.0000       288.87780       98944.927       14528.197       2.4712500     -0.57725000     -0.26575000       341.83000       2.9581924     0.031067081
       1481.0000       288.90218       98920.693       14578.249       2.0640000     -0.63625000    -0.078500000       341.84400       3.3385149     0.030097628
       1486.0000       288.89334       98917.066       14582.688       4.8435000      -4.2810000     -0.14100000       341.49800       5.6059773     0.049187006
       1491.0000       288.93280       98917.819       14627.650       3.2180000      -1.5815000     -0.37250000       341.81900       3.3384095     0.040498471
       1496.0000       288.96126       98918.391       14643.815       2.8715000      -2.9612500     -0.17975000       341.81100       2.7155740     0.026619273
       1501.0000       288.91509       98942.082       14543.051       4.6560000      -3.7122500     -0.25225000       341.54700       5.6869071     0.041842689
       1507.0000       288.94733       98944.506       14558.083       4.1912500      -1.8740000     -0.18600000       341.40300       4.8664949     0.034007080
       1512.0000       289.08303       98921.601       14679.856       4.1867500      -1.8227500     -0.27975000       341.41500       3.8055597     0.026857522
       1517.0000       289.12559       98917.796       14726.140       3.6680000      -2.0672500      0.25975000       341.58300       2.7517803     0.031145125
       1522.0000       289.15108       98912.483       14801.871       3.1500000      -2.8502500     -0.29675000       341.46800       6.4701392     0.035997018
       1527.0000       289.16392       98913.268       14836.756       3.1255000      -1.7580000     0.051000000       341.41700       5.2245208     0.040640400
       1532.0000       289.09199       98936.367       14772.185       2.5347500      -1.5170000      0.71375000       341.60700       2.1028367     0.022634232
       1537.0000       289.08907       98939.184       14784.088       2.9915000      -1.1552500     -0.74225000       341.74400       2.8388345     0.041635210
       1542.0000       289.15104       98929.809       14864.190       4.0755000     -0.86250000     -0.43775000       341.35700       4.5391409     0.027947408
       1547.0000       289.15723       98924.121       14879.015       3.5335000      -1.0930000     -0.17250000       341.64900       5.3294625     0.033465727
       1552.0000       289.15803       98902.659       14888.114       2.3457500      -1.3352500     0.079750000       341.61400       3.9982278     0.030013769
       1557.0000       289.15398       98901.408       14886.696       2.6897500      -1.0252500      0.63325010       341.79200       6.9612911     0.033145127
       1562.0000       289.10520       98917.355       14825.922       2.9620000      -1.1560000      0.34575000       341.88100       3.9568558     0.030675305
       1567.0000       289.08876       98922.415       14806.269       2.6025000     -0.78075000      0.47525000       341.90400       3.0794251     0.030680715
       1572.0000       289.11292       98938.350       14841.292       2.9610000      0.53325000      0.17775000       341.89500       3.9010506     0.028192553
       1577.0000       289.09927       98938.798       14815.220       3.2057500     -0.10850000      0.71725000       341.96600       3.4964418     0.044195677
       1582.0000       289.06208       98915.651       14759.921       3.1440000     -0.91550000      0.22575000       341.97900       3.8992555     0.032067726
       1587.0000       289.04244       98912.329       14710.073       5.0027500      0.84600000      0.21925000       341.97800       4.6755290     0.031581392
       1592.0000       289.00513       98912.092       14619.847       3.1380000     -0.60725000     -0.38525000       341.64100       3.4452356     0.029422157
       1598.0000       288.98711       98915.714       14543.166       2.5515000     -0.92425010      0.88000010       341.75000       2.9707775     0.026551174
       1603.0000       289.01204       98938.877       14505.948       2.2595000     -0.58150010      0.91025010       341.98000       3.4162305     0.028626483
       1608.0000       288.99584       98938.435       14446.151       3.2757500      -2.5305000     -0.47575000       341.28300       4.2410622     0.021211679
       1613.0000       288.95798       98923.376       14355.780       4.8880000      -1.3637500     -0.29400000       341.78200       4.9018427     0.040600943
       1618.0000       288.93795       98916.763       14320.429       5.1575000      -1.2957500      0.14225000       341.54700       3.7329582     0.026947679
       1623.0000       288.90024       98896.039       14302.514       4.1835000      0.10700000      0.74100010       341.85900       4.0964403     0.040479316
       1628.0000       288.88617       98896.904       14292.727       3.6015000     -0.91275010     -0.26875000       341.60900       6.1039660     0.028018824
       1633.0000       288.92256       98920.468       14351.041       4.4295000      -1.0695000    -0.026000000       341.56300       2.9406146     0.025890411
       1638.0000       288.89044       98923.592       14328.304       2.6627500     -0.83350000     -0.22850000       341.99800       2.7938630     0.023109029
       1643.0000       288.80617       98928.815       14252.880       1.6355000      -1.3107500      0.85750000       342.01400       2.8114321     0.029466623
       1648.0000       288.78241       98926.551       14215.985       2.9000000   -0.0067500000     0.058750000       342.11500       2.4459838     0.026271565
       1653.0000       288.74416       98903.157       14159.872       3.6622500     -0.38225000     0.089750010       341.70900       2.4159865     0.023815864
       1658.0000       288.73657       98901.935       14119.465       4.6017500      -1.9240000     -0.38375000       341.65900       3.2972721     0.026128282
       1663.0000       288.79958       98912.206       14104.675       7.3382500    -0.018000000    -0.025500000       341.25200       3.9154405     0.041659735
       1668.0000       288.81349       98918.539       14088.111       5.7440000     -0.37550000    -0.074500000       341.21600       6.2773878     0.027717036
       1673.0000       288.78920       98937.925       14046.628       5.5157500     -0.71750000     0.049000000       341.64500       3.8434739     0.021809560
       1678.0000       288.80547       98939.155       14055.451       4.0820000     -0.17725000      0.66600000       341.68800       4.2884499     0.015867560
       1683.0000       288.85349       98927.653       14112.138       5.3902500     -0.56200000      0.11950000       341.48900       4.0867014     0.021598735
       1689.0000       288.85675       98922.030       14150.016       3.0687500     0.029000000      0.62050000       341.78600       5.2650104     0.030719026
       1694.0000       288.87703       98906.545       14225.099       5.5462500      0.10825000      0.20650000       341.43000       3.9487388     0.021495443
       1699.0000       288.83027       98908.926       14202.845       6.4005000      -2.0465000     -0.35625000       341.22400       4.9214850     0.016865334
       1704.0000       288.69706       98925.175       14118.108       3.7757500     -0.47775000    -0.077250000       341.56900       3.6643887     0.016663189
       1709.0000       288.66441       98929.412       14077.602       6.9917500      -3.0442500     -0.53575000       341.14100       4.3588462     0.020514855
       1714.0000       288.63116       98939.203       13987.278       4.6047500      -2.6435000     -0.34725000       341.27100       4.2099285     0.036813087
       1719.0000       288.64694       98935.010       13966.149       5.1817500      -1.9165000     -0.16750000       341.25600       2.4286958     0.016408906
       1724.0000       288.75867       98913.761       14012.889       4.0420000      -1.9135000      0.70100000       341.41200       2.9099144     0.020688280
       1729.0000       288.77147       98912.372       14006.650       3.9330000      -1.0107500     -0.38975000       341.59000       3.0678778     0.020934632
       1734.0000       288.75774       98912.976       13992.871       5.2290000      -2.1862500      0.47825000       341.33800       2.6217781     0.029837884
       1739.0000       288.74847       98915.739       13983.354       3.6057500     -0.41275000      0.18725000       341.27600       4.4617382     0.028661011
       1744.0000       288.69748       98931.215       13963.656       2.9225000      -1.6285000      0.94550000       341.72300       2.5193695     0.026556541
       1749.0000       288.68623       98934.645       13946.688       2.6577500    -0.076250000      0.56525000       341.65600       2.5141139     0.028687644
       1754.0000       288.69122       98932.992       13924.505       3.6407500    -0.078500000     -0.26525000       341.59800       6.1410574     0.030897811
       1759.0000       288.70993       98927.415       13934.659       4.5210000     0.086000000     -0.47650000       341.54000       4.2051191     0.027363934
       1764.0000       288.74655       98913.009       13954.976       2.6357500      0.58800000      0.80275010       341.86500       2.6288965     0.027217312
       1769.0000       288.76639       98914.528       13973.730       3.0782500     -0.94100000     -0.61150000       341.73000       3.1952567     0.027839594
       1775.0000       288.81267       98918.457       14037.999       1.8957500     -0.11450000     0.095500010       341.49800       4.8150198     0.029064551
       1780.0000       288.80066       98923.752       14031.595       5.9447500     -0.85625000     -0.38600000       341.26100       3.3478741     0.029794814
       1785.0000       288.74405       98945.273       13979.702       4.5120000      -1.6907500     -0.31250000       341.56600       6.0953612     0.028340581
       1790.0000       288.74513       98940.049       13986.981       5.4640000       1.1932500     -0.32650000       341.27300       5.5317016     0.039852841
       1795.0000       288.74409       98918.639       13989.529       3.7860000      0.94950000       1.4932500       341.82400       3.5063225     0.032014499
       1800.0000       288.79989       98914.073       14075.947       4.5220000      -1.7902500     -0.61000000       341.69800       2.4362006     0.015605953
       1805.0000       288.81306       98912.433       14098.744       5.1630000      -2.2287500     -0.46175000       341.19800       2.4505043     0.022858314
       1810.0000       288.75509       98928.952       14046.561       5.4100000      -2.5080000     -0.36400000       341.27800       4.5313245     0.026716000
       1815.0000       288.74396       98937.252       14032.654       3.8817500      -1.4127500     0.053250000       341.40100       3.3610684     0.023113960
       1820.0000       288.74507       98941.843       14019.118       3.9757500      -1.4342500      0.74775000       341.54300       3.0444063     0.022855025
       1825.0000       288.74328       98943.482       13973.735       3.9345000      -3.5120000      0.56275000       341.54800       2.5608516     0.027187638
       1830.0000       288.75499       98935.669       13981.256       3.5407500      -1.9300000    -0.079750000       341.56000       2.6616052     0.021003246
       1835.0000       288.80624       98918.768       14040.194       3.2952500      -2.4010000    -0.098250000       341.42400       4.3223194     0.019657099
       1840.0000       288.77057       98913.949       14001.888       5.4010000     -0.51000010     -0.11950000       341.48100       2.9048469     0.023745186
       1845.0000       288.78786       98912.290       14023.108       7.2830000      -1.3797500    -0.010250000       341.33600       3.4300830     0.029226221
       1850.0000       288.86040       98928.880       14083.639       5.0560000     -0.13875000     -0.51150000       341.44100       3.7263712     0.028329975
       1855.0000       288.89998       98937.126       14126.902       3.3835000     -0.45700000      0.49150000       341.70300       3.3253920     0.035054528
       1860.0000       289.00010       98944.739       14248.899       4.1042500     -0.12950000     -0.38250000       341.66000       2.0488751     0.026927246
       1866.0000       289.02417       98942.306       14307.233       2.9947500     -0.50125000      0.41450000       341.90900       1.9811807     0.025112236
       1871.0000       288.91917       98925.727       14263.144       4.2500000      -2.1807500     -0.34025000       341.53600       2.9728990     0.025606926
       1876.0000       288.89050       98918.925       14256.609       2.8790000      -1.0850000     -0.24825000       341.73400       4.1693160     0.026521452
       1881.0000       288.86797       98903.605       14260.279       2.8040000      -2.7427500      0.52075000       341.65600       4.7655483     0.025379742
       1886.0000       288.83859       98901.434       14219.497       3.0782500      -1.1685000     -0.28475000       341.40400       3.1518483     0.027547879
       1891.0000       288.84152       98921.168       14153.094       3.7567500      -1.1315000     -0.33275000       341.66400       4.5239822     0.037856290
       1896.0000       288.85148       98928.086       14108.393       4.4012500      -1.1755000     0.075750000       341.72300       2.6714057     0.027330156
       1901.0000       288.82918       98936.884       14003.057       3.3000000      -1.9335000     -0.51950000       341.70300       4.0496074     0.029911106
       1906.0000       288.84139       98938.220       13960.244       2.2185000     -0.25825000      0.61700000       342.23100       4.8023589     0.040057938
       1911.0000       288.92347       98921.657       13988.183       4.2245000      -1.3340000      0.62950000       341.78200       3.1604503     0.020070048
       1916.0000       288.96194       98918.087       14001.765       4.0752500     -0.89350000      0.17550000       341.60800       4.6467993     0.024182452
       1921.0000       288.99003       98917.690       14036.835       5.5822500     0.066750000    -0.030500000       341.51700       4.9345601     0.024332198
       1926.0000       289.00890       98919.092       14064.461       3.2892500     -0.68425010      0.37375000       341.64700       5.0828249     0.026306707
       1931.0000       289.00000       98933.287       14080.518       4.8450000      0.68100010     -0.60775010       341.52500       2.5488195     0.036509164
       1936.0000       289.00000       98937.996       14116.414       4.4490000     0.057750000      0.36125000       341.60100       4.9880156     0.019154667
       1941.0000       288.99974       98938.635       14171.625       3.5027500     -0.31425000      0.14625000       341.71900       2.7103347     0.026852374
       1946.0000       288.99963       98936.187       14214.595       4.0037500     -0.54800000      0.79600010       341.72300       2.8280023     0.025599193
       1951.0000       289.01393       98924.583       14273.741       5.2710000      -1.3710000      0.88300000       341.75700       3.4507362     0.023588221
       1957.0000       288.99888       98917.738       14321.009       5.5252500      -1.2387500     -0.33900000       341.45500       3.5374828     0.026359338
       1962.0000       288.94989       98907.330       14346.213       4.5912500     -0.47100000      0.42100000       341.36300       3.6664320     0.033903263
       1967.0000       288.94380       98908.257       14360.153       2.4095000     -0.10875000      0.27925000       341.62500       2.3882222     0.034067270
       1972.0000       288.95659       98921.614       14382.627       4.7615000      0.57775000     -0.37450000       341.33800       3.0904448     0.024024812
       1977.0000       288.94656       98927.640       14358.495       3.8942500     -0.15450000      0.18675000       341.52200       2.8046864     0.022323103
       1982.0000       288.94377       98944.025       14262.509       2.3390000     -0.45900000      0.26325000       341.91100       2.1656917     0.028615895
       1987.0000       288.95374       98943.534       14234.538       2.6737500     -0.80000000      0.80775000       341.92600       2.2359751     0.026747148
       1992.0000       288.94260       98924.954       14203.656       2.6842500     -0.68975000    -0.065500010       341.58800       2.4053253     0.025131403
       1997.0000       288.94613       98916.972       14195.590       3.0282500     -0.92150000     -0.25025000       341.59500       1.9549114     0.025756026
       2002.0000       289.02230       98896.905       14303.840       2.6797500      -1.3280000      0.14025000       341.75100       2.0672417     0.026120063
       2007.0000       289.01057       98896.052       14278.515       5.5670000      0.21800000    -0.057500000       341.77100       2.0375702     0.020954047
       2012.0000       288.92405       98915.442       14172.757       3.1630000      -2.3682500     -0.38900000       341.88100       1.9870126     0.025431125
       2017.0000       288.88404       98923.442       14091.074       3.8015000      -2.6402500     -0.72200010       341.31000       1.8848961     0.022274002
       2022.0000       288.79619       98939.524       13917.132       3.4600000      -1.7497500     -0.20775000       341.45500       1.9106081     0.024296866
       2027.0000       288.77696       98944.653       13833.029       2.5910000      -1.4590000      0.29325000       341.63700       1.8642059     0.024630412
       2032.0000       288.83817       98940.339       13803.704       3.9145000      -3.7335000     -0.64075010       341.38600       1.8886849     0.024951370
       2037.0000       288.85796       98934.230       13781.589       2.2195000      -2.4690000      0.73750000       341.80500       1.8628019     0.026183308
       2042.0000       288.89501       98915.395       13799.715       3.5747500      -3.6415000     -0.13250000       341.61700       1.9465602     0.036211306
       2048.0000       288.91297       98911.764       13815.020       5.0500000      -3.0892500     -0.71200000       341.54100       1.9023217     0.030108414
       2053.0000       288.88829       98911.622       13830.589       5.1155000      -2.6415000     -0.20325000       341.50600       1.8936498     0.033126740
       2058.0000       288.90466       98915.218       13876.349       5.1340000      -4.1972500     0.096750010       341.52200       1.8829624     0.022014353
       2063.0000       288.94212       98935.308       13941.792       3.4875000      -2.4220000      0.18825000       341.72800       1.8516761     0.026791192
       2068.0000       288.96231       98939.944       14010.340       3.8262500      -1.2895000     -0.84100000       341.84500       1.8587396     0.023345089
       2073.0000       288.98792       98939.293       14117.530       3.8322500     -0.88825010     -0.30250000       341.53900       1.8991703     0.032861683
       2078.0000       289.01796       98933.848       14189.031       2.7547500      -1.3470000       1.0785000       341.75800       1.8175724     0.025064688
       2083.0000       289.04180       98916.733       14260.051       2.2695000      -1.2375000      0.36100000       341.80000       1.8310989     0.025684851
       2088.0000       289.06142       98911.035       14293.524       2.9200000      -1.6787500     -0.14250000       341.73000       1.8443924     0.024163940
       2093.0000       289.11170       98901.199       14314.972       3.1912500     -0.63700000    0.0017500000       341.81000       1.8019030     0.028418576
       2098.0000       289.10912       98904.120       14295.225       4.9470000      -2.6100000     -0.48150000       341.78800       1.9083140     0.022063072
       2103.0000       289.04704       98922.684       14206.120       4.7502500      -3.5015000      0.93350010       341.76700       1.8899509     0.021620744
       2108.0000       289.04341       98930.062       14175.963       2.7830000      -1.9135000       1.3507500       342.00000       1.8138594     0.025869835
       2113.0000       289.04351       98941.181       14139.174       4.5242500      -1.9040000     -0.14375000       341.70900       1.8626781     0.024417514
       2118.0000       289.04988       98943.700       14122.506       2.9850000      -2.6180000     -0.15900000       341.78900       1.8556422     0.024489654
       2123.0000       289.11043       98939.412       14158.607       2.5860000      -1.0732500      0.36625000       341.73100       1.8227608     0.029267401
       2128.0000       289.10774       98932.567       14145.734       4.5305000      -1.8997500     -0.11950000       341.36400       1.8922422     0.023002828
       2133.0000       289.03589       98913.226       14076.780       3.4667500      -2.0102500      0.37300000       341.84700       1.8257451     0.026790590
       2139.0000       289.05374       98912.808       14101.998       2.9407500      -1.4295000     0.028750000       341.70100       1.8786112     0.022044611
       2144.0000       289.10563       98917.317       14162.794       2.7690000      -2.4357500      0.21250000       341.97000       1.9032719     0.022082840
       2149.0000       289.09679       98921.979       14183.268       4.1415000      -1.4432500      0.53150000       342.03000       1.8446975     0.023248532
       2154.0000       289.12196       98941.315       14262.395       5.7480000     -0.91250000     -0.41850000       341.25900       1.8744903     0.020271665
       2159.0000       289.08579       98945.883       14246.572       5.9395000      -1.9230000     -0.37250000       341.52000       1.9087233     0.019078631
       2164.0000       288.93753       98942.756       14127.258       3.6325000      -4.6635000      0.98975000       341.61700       1.8666833     0.032684106
       2169.0000       288.91321       98937.090       14102.058       2.2147500      -1.3355000      0.74725000       341.82700       1.8657216     0.027312131
       2174.0000       288.96061       98927.532       14104.358       2.8857500      -2.1425000     -0.13725000       341.69900       1.9167314     0.021749763
       2179.0000       288.93203       98919.750       14071.226       3.5355000      -2.3062500    -0.011750000       341.90200       1.8807905     0.021523791
       2184.0000       288.92231       98902.272       14076.916       4.9292500      -1.3660000     -0.77150010       341.63700       1.8864860     0.031662680
       2189.0000       288.87402       98902.737       14004.155       4.0535000     -0.75775000      0.61100000       341.71600       1.8154471     0.022677582
       2194.0000       288.74033       98912.873       13854.360       4.9730000      -2.1277500     -0.32175000       341.47300       1.8656323     0.030708850
       2199.0000       288.71679       98919.643       13773.488       4.3112500      -1.4845000      0.38850000       341.45900       1.8592170     0.024525075
       2204.0000       288.74347       98936.786       13683.496       4.0740000      -1.9907500      0.55100000       341.81700       1.8513355     0.022457840
       2209.0000       288.75215       98940.290       13627.163       2.8367500      -1.1777500      0.39425000       342.01300       1.8399306     0.022832823
       2214.0000       288.80344       98938.673       13599.215       3.0435000      -2.1777500      0.46100000       341.50300       1.8957417     0.021855006
       2219.0000       288.81468       98932.235       13594.185       3.2537500      -2.6047500       1.1270000       341.70000       1.8813090     0.021899314
