MIRICO/SHELL project - Processed LDS file generated on
Thu Jul 27 04:26:23 2017
Time stamp for record start
05/12/2017  14:02: 5.0001
Nb of points in the record
         547
Beam position index
       4.0000000
Beam angle (degrees)
    -0.040000000
Open Path length (m)
       98.010000
****************** Temporal data record ************************
Elapsedtime_sec Temp_K Press_Pa Humidity_ppmv WindX_m/s WindY_m/s WindZ_m/s Speedofsound_m/s CH4vmr_ppmv CH4vmrerror_ppmv  
      0.00000000       288.65043       98930.659       13826.618       3.1922500      -1.0672500      0.73650000       341.61600       1.9283247     0.011184657
       4.9999729       288.63997       98937.958       13831.852       4.5152500      -1.3090000      0.46050000       341.56300       1.9092609    0.0092367774
       9.9999860       288.64978       98947.300       13857.509       5.0897500      -2.7642500     0.065000010       341.35800       1.9404463     0.012379723
       14.999999       288.65954       98952.948       13883.664       3.6592500      -1.5882500    -0.091000010       341.33100       1.9146490     0.011125533
       19.999972       288.64312       98944.348       13888.100       4.7985000      -1.8847500     -0.36725000       341.38000       1.9385740    0.0093582477
       24.999985       288.65483       98943.479       13917.245       3.1750000      -1.5860000    0.0085000000       341.55000       1.9178899     0.013303895
       29.999998       288.70023       98954.008       13976.595       3.7595000      -2.4075000     -0.39475000       341.32200       1.9260372     0.010306833
       34.999971       288.74550       98934.058       14035.407       3.0662500      -1.1482500     -0.64675000       341.54300       1.9203659    0.0099182778
       39.999984       288.75722       98923.707       14060.839       3.9417500      -1.9637500     -0.29700000       341.38000       1.8927305     0.010417273
       44.999997       288.75486       98911.569       14068.322       3.1052500      -1.1015000     -0.59900000       341.31600       1.9191383     0.011518751
       51.000005       288.75451       98906.778       14079.671       4.6857500      -1.0292500    -0.030000000       341.35200       1.9239645    0.0097978772
       55.999978       288.71026       98913.033       14047.442       4.4890000      -1.8232500     -0.48175000       341.47200       1.9288722     0.012191905
       60.999991       288.69182       98920.438       14038.654       4.8812500      -1.8590000      0.40900000       341.41500       1.9123505     0.010697043
       66.000004       288.71450       98941.197       14065.393       3.8767500      -1.7422500     -0.26500000       341.48500       1.9250407     0.010316462
       70.999977       288.70301       98948.651       14063.005       4.2620000      -1.6357500     -0.28675000       341.36400       1.9766107     0.014867541
       75.999990       288.65223       98951.731       14022.919       3.2625000      -1.6315000     0.029750000       341.44100       1.9111142    0.0090859904
       81.000003       288.64353       98952.220       14026.181       3.2397500      -1.2792500     0.055250000       341.49500       1.9375336     0.011679406
       85.999976       288.65830       98942.932       14062.330       3.4972500     -0.54150000    -0.047750000       341.51900       1.9671439     0.012053616
       90.999989       288.64834       98933.783       14063.392       2.4297500     -0.45800000     0.040250000       341.65000       1.8965968     0.011781439
       96.000002       288.65634       98919.766       14077.284       2.3820000     -0.63800000      0.37525000       341.67600       1.8869298     0.010241022
       100.99998       288.65500       98913.150       14080.184       3.0340000      -1.0222500     0.050000000       341.65300       1.9132924    0.0090584892
       105.99999       288.60968       98902.128       14027.687       3.2857500     -0.52550000      0.36325000       341.63500       1.8922501     0.011646228
       111.00000       288.59116       98901.966       14009.505       4.5452500     -0.95625010     -0.30325000       341.33400       1.9217567     0.011276361
       115.99997       288.61356       98919.516       14043.523       4.1475000      -1.3500000     -0.40800000       341.38700       1.9032190     0.010651491
       120.99999       288.60198       98927.432       14029.214       4.3225000      -1.7075000     -0.57450000       341.36500       1.9008158    0.0095584594
       126.00000       288.56530       98937.479       13988.295       5.2915000      -2.6560000      0.10925000       341.29000       1.9542132     0.011694612
       130.99997       288.54523       98943.211       13955.574       5.3880000      0.12450000     -0.71575000       341.41800       1.9393209     0.011366766
       135.99999       288.49554       98944.612       13874.093       5.6195000     -0.74050000     -0.18450000       341.57200       1.9117994    0.0096034226
       141.99999       288.48986       98940.069       13839.989       5.7630000      -1.6712500     -0.41175000       341.23700       1.9419399     0.011035486
       147.00001       288.55124       98929.028       13869.572       5.3402500     0.045000000    -0.074500000       341.23600       1.9221470     0.010398097
       151.99998       288.55765       98923.121       13860.137       4.2395000      -1.7160000     -0.33375000       341.30500       1.8828804    0.0091207223
       156.99999       288.55828       98912.030       13854.837       5.0542500     -0.99275000     -0.77525000       341.35500       1.9357074     0.011325052
       162.00001       288.55457       98907.284       13846.285       5.5760000      -1.1467500     0.012750000       341.37500       1.9316342     0.010420534
       166.99998       288.50516       98907.540       13801.183       6.0017500     -0.75650010      0.11775000       341.27000       1.9127478    0.0087394069
       171.99999       288.48858       98910.207       13790.926       6.2040000     -0.68450000     -0.53250000       341.13600       1.9187254     0.011238330
       177.00001       288.52563       98916.589       13843.992       5.8112500     -0.15700000     -0.33550000       341.31800       1.9034662    0.0097690996
       181.99998       288.49846       98921.950       13818.691       4.4547500      -1.2862500      0.44800000       341.31300       1.9469328     0.010357698
       186.99999       288.42385       98933.208       13754.656       3.8787500     -0.44150000    -0.063500000       341.36600       1.9361831     0.011559427
       192.00000       288.38410       98938.424       13701.167       4.5990000     -0.41400000    -0.065750000       341.27000       1.9166076     0.013685028
       196.99998       288.30975       98941.137       13582.666       5.1687500      0.46075000    0.0055000000       341.29800       1.8928641    0.0097079053
       201.99999       288.27762       98941.329       13522.707       4.2592500     -0.47175000      0.18250000       341.38300       1.9542023     0.010924355
       207.00000       288.30042       98940.550       13508.960       4.3665000     -0.47775000      0.76950000       341.28000       1.9166141    0.0095775220
       211.99998       288.30070       98934.485       13480.798       5.8512500     -0.89650010     -0.20325000       341.18900       1.9426581     0.011082525
       216.99999       288.30005       98917.835       13461.202       4.7860000      0.55250000      0.36150000       341.33400       1.9007811     0.010579421
       222.00000       288.30000       98911.523       13442.927       4.5932500      -2.2562500    -0.029000000       341.43600       1.9438810     0.010177484
       226.99998       288.28723       98902.838       13410.952       5.1332500      -1.3082500      0.18150000       341.31200       1.9215263    0.0099496687
       232.99998       288.30529       98903.463       13412.883       4.0100000    -0.085500000     -0.44175000       341.32500       1.9241426    0.0098211555
       238.00000       288.34187       98915.180       13439.591       3.9337500    -0.047750000      0.88475010       341.33200       1.8989835    0.0094583405
       242.99997       288.36160       98925.284       13458.766       4.3627500      -1.3470000     -0.23075000       341.22500       1.9197095     0.011606217
       247.99998       288.39932       98942.309       13496.506       3.9155000      -1.2857500     -0.70175000       341.37800       1.9287924     0.012072453
       253.00000       288.41297       98951.012       13526.373       4.9780000      0.30150000     -0.71075000       341.27600       1.9257589     0.014686751
       257.99997       288.40009       98962.244       13539.910       6.2390000     -0.82950000     -0.98400000       341.37400       1.9248600     0.010751595
       262.99998       288.40009       98963.233       13579.797       4.0730000      -1.6872500     0.013500000       341.43800       1.9007564    0.0084609457
       267.99999       288.38892       98955.153       13638.420       4.7755000      -1.6925000      -1.3060000       341.27500       1.9371012     0.011411969
       272.99997       288.40496       98946.324       13692.146       5.0305000      -1.7027500    -0.078250010       341.29300       1.8889034     0.013433122
       277.99998       288.45307       98928.818       13786.934       4.9567500      -1.3465000     -0.19625000       341.22600       1.8816355    0.0084725910
       282.99999       288.45686       98918.473       13803.919       2.8752500     -0.90975000      0.91325000       341.49100       1.9111585     0.011229247
       288.00001       288.45818       98902.777       13780.083       6.0340000      -2.6712500     -0.20675000       341.09900       1.9322762    0.0099258906
       292.99998       288.45166       98901.612       13762.963       5.6692500      -1.3357500     -0.27325000       341.05700       1.9135893    0.0098874341
       297.99999       288.39020       98912.018       13683.103       3.3967500      -1.3412500      0.53725000       341.27600       1.8950947     0.011243253
       303.00001       288.39284       98918.327       13664.642       4.3830000     -0.97700010      0.42025000       341.36200       1.8892526    0.0088540413
       307.99998       288.44247       98932.233       13692.862       3.5442500      -1.6495000      0.20700000       341.34400       1.9465133     0.010946127
       312.99999       288.46246       98941.624       13687.225       3.6605000     -0.84750000      0.73925010       341.37400       1.9016701    0.0097234468
       318.00001       288.51107       98948.672       13691.993       5.2315000      -1.6437500     -0.31150000       341.21000       1.9054703     0.010570632
       323.99997       288.50525       98954.938       13664.947       4.1297500      -2.0315000    -0.058250000       341.27200       1.9463752     0.012436246
       328.99999       288.44478       98963.520       13589.625       4.5122500     -0.40000000     -0.19700000       341.13000       1.9270184    0.0099474135
       334.00000       288.44329       98960.198       13599.319       4.2130000      -2.3115000     0.011750000       341.20100       1.8989978    0.0094055201
       338.99997       288.45151       98948.645       13642.991       4.9785000      0.79750000     0.074000000       341.28800       1.9184906     0.011589433
       343.99998       288.44159       98938.805       13664.026       5.8890000      -1.5577500     -0.26875000       341.25300       1.9156060    0.0094724946
       349.00000       288.44785       98920.457       13717.696       4.4992500    -0.018250000     -0.18900000       341.21200       1.9136722     0.010210892
       353.99997       288.45804       98913.086       13766.064       4.0060000      0.30350000     -0.39800000       341.18300       1.9005738     0.012690926
       358.99998       288.43514       98907.788       13775.529       3.5855000      -1.1180000     -0.14225000       341.45500       1.9273658     0.011748709
       364.00000       288.46249       98909.202       13847.697       3.6760000      -1.2937500      -1.8410000       341.41300       1.9432823     0.010641677
       368.99997       288.55810       98916.640       13999.636       1.9935000     -0.29975000      0.17100000       341.53800       1.8915577    0.0099343783
       373.99998       288.57054       98926.135       14055.244       3.8387500      -2.0460000     -0.34875000       341.45400       1.9389646     0.010020339
       379.00000       288.55827       98944.406       14093.565       4.1782500      -1.5307500      0.68600000       341.44600       1.9447381     0.012035081
       383.99997       288.54929       98952.651       14112.680       3.6557500      -2.0342500     -0.33375000       341.40600       1.8832870     0.010165547
       388.99998       288.49775       98961.190       14071.554       3.7245000      -1.4422500      0.19375000       341.40500       1.9250754     0.012183168
       394.00000       288.48675       98964.653       14074.187       4.3720000      -1.8140000     -0.50200000       341.19900       1.9080588    0.0090042188
       398.99997       288.50853       98962.859       14113.099       3.2347500      -2.5210000     -0.48725000       341.40400       1.8993071     0.011888111
       403.99998       288.48970       98957.222       14075.211       2.5475000      -1.7345000      0.31675000       341.55800       1.9398509     0.013221455
       409.99999       288.44989       98946.791       13994.142       2.3770000      -1.1477500      0.41750000       341.54200       1.9534065     0.011839458
       415.00000       288.41485       98930.147       13873.019       2.6350000      -1.1007500      0.48100000       341.65000       1.9657388     0.016736834
       419.99997       288.39371       98918.909       13796.977       3.7482500      -1.6440000    -0.092750010       341.30600       1.9365013     0.011724874
       424.99999       288.38492       98910.130       13745.085       3.6690000      -1.2677500     -0.31325000       341.29700       1.9101524     0.011363167
       430.00000       288.39293       98902.053       13715.358       3.6255000      -1.7485000     0.083000000       341.24700       1.9543268     0.013855596
       434.99997       288.41434       98904.700       13719.795       2.7892500      -1.8855000     -0.43725000       341.43800       1.9323130     0.011066670
       439.99999       288.45578       98914.194       13763.143       3.8745000      -1.0000000     -0.46400000       341.36000       1.9183826     0.011058691
       445.00000       288.45438       98928.748       13786.596       3.0760000      0.11300000    -0.056000000       341.48900       1.9210405     0.013303448
       449.99997       288.45574       98937.239       13809.775       4.5570000      0.19775000      0.13450000       341.49400       1.9275360     0.011515472
       454.99999       288.40013       98935.928       13797.951       4.0290000     -0.87525000     -0.13725000       341.43900       1.9333669     0.011835721
       460.00000       288.38803       98939.819       13815.505       2.8005000      -1.4915000     -0.14650000       341.62000       1.9131572     0.010950453
       464.99997       288.40062       98944.945       13850.693       3.0827500     0.094500010     0.054250000       341.33900       1.9215950     0.010719796
       469.99999       288.44968       98951.643       13914.310       4.1652500     -0.20450000      0.73150000       341.46200       1.9433898     0.010259684
       475.00000       288.47013       98951.444       13948.750       4.0737500      0.41025000      0.12050000       341.17400       1.9485398     0.011807329
       479.99997       288.50617       98953.200       13990.631       4.2577500      0.37125000     -0.12325000       341.39700       1.9443858     0.015021900
       484.99998       288.50017       98935.508       14005.137       3.8850000     -0.59800000      0.21625000       341.46300       1.9516436     0.011153311
       490.00000       288.50030       98924.290       14018.107       4.7090000      -1.8600000      0.19800000       341.41400       2.0069477     0.011590899
       494.99997       288.50024       98910.177       14031.390       4.0812500     -0.70650010      0.16100000       341.46100       1.9801068     0.012712301
       500.99998       288.50037       98901.927       14041.277       4.7560000     -0.24150000     -0.57950000       341.39300       1.9884769     0.012283131
       505.99999       288.50006       98904.650       14045.058       2.7402500      -1.0125000      0.13600000       341.30700       2.2335549    0.0091841489
       511.00000       288.50009       98904.748       14039.036       1.9902500      -1.4415000      0.51850000       341.53900       2.2124305     0.011847280
       515.99998       288.48544       98905.103       14000.568       2.2247500     -0.69850000     0.022000000       341.68200       2.1069407     0.012147546
       520.99999       288.49678       98910.465       14003.370       3.3722500      -1.0282500     -0.31175000       341.45800       1.9992950     0.013862975
       526.00000       288.53384       98920.313       14019.169       3.4497500     -0.80700000     -0.25550000       341.30500       1.9825622     0.011214688
       530.99998       288.55390       98926.276       14041.826       2.9625000     -0.88525000      0.89575000       341.60000       2.0212514     0.014602275
       535.99999       288.59032       98934.658       14108.829       2.7210000     -0.94475010     -0.48850000       341.53700       1.9333906     0.011361807
       541.00000       288.60943       98942.647       14154.988       4.3427500     -0.39575000     0.081500000       341.25600       1.9144837     0.010399447
       545.99998       288.59984       98950.104       14179.262       4.0927500      -2.1302500     -0.11725000       341.17100       1.9436870     0.013673607
       550.99999       288.59969       98951.882       14219.141       4.8172500      -1.9660000     -0.26725000       341.16000       1.9259432     0.010875965
       556.00000       288.61531       98953.284       14301.332       3.3885000      -1.7220000     -0.35875000       341.31200       1.9062887     0.010840468
       560.99997       288.60416       98951.907       14320.405       3.4547500      -2.5082500     -0.32800000       341.60500       1.9256041     0.010001478
       565.99999       288.53780       98941.606       14280.867       3.3540000      -1.2500000      0.37150000       341.44100       1.9389606     0.011152849
       571.00000       288.54052       98933.542       14287.970       3.8147500      -1.7182500     0.038000000       341.37800       1.9163552     0.012351773
       575.99997       288.59261       98925.613       14295.427       2.5127500     -0.72400000     0.053750000       341.71000       1.9120290     0.010036552
       580.99999       288.60278       98918.550       14278.391       2.4950000     -0.40750000    -0.017500000       341.70300       1.9017900     0.010138902
       586.00000       288.64698       98900.367       14287.319       1.3532500     -0.61750000      0.50575000       341.72500       1.8858408     0.010524773
       592.00001       288.66450       98902.968       14278.756       2.2587500     -0.72425000      0.16400000       341.61600       1.9165959     0.010481039
       596.99998       288.60498       98923.582       14206.594       1.8745000     -0.72825000      0.17725000       341.74800       1.9160902     0.010408592
       601.99999       288.58874       98933.842       14181.233       3.4942500     -0.37850000     -0.12475000       341.44600       1.9327329     0.012795124
       607.00001       288.58729       98960.024       14182.173       4.5405000      0.70225000    -0.075750000       341.35800       1.8923780     0.010282136
       611.99998       288.60140       98966.965       14194.206       4.1765000      -2.9542500       1.2327500       341.64800       1.9252051     0.010489089
       616.99999       288.65089       98950.249       14240.059       4.3967500      -1.8162500      0.16100000       341.46300       1.9158957    0.0096470885
       622.00001       288.65721       98949.026       14248.629       3.2525000      -2.1570000     -0.41350000       341.59300       1.9550962     0.012945550
       626.99998       288.65654       98948.964       14247.806       3.9445000      -2.8840000     0.070250000       341.31500       1.9129980     0.010702459
       631.99999       288.65301       98949.673       14255.558       3.9987500     -0.54450010      0.30650000       341.38100       1.9276364     0.011644375
       637.00000       288.60509       98962.029       14236.532       4.1102500      -2.0252500      0.40700000       341.58500       1.9178182     0.010691395
       641.99998       288.58906       98962.587       14235.407       7.1572500       1.3105000     -0.39525000       341.28000       1.9025199     0.011127933
       646.99999       288.58682       98956.892       14257.330       4.6647500     -0.13700000      0.23175000       341.52600       1.9913234     0.010274967
       652.00000       288.60088       98948.700       14275.284       5.9692500      0.66725000     -0.22025000       341.35500       2.0249352     0.010462143
       656.99998       288.63798       98929.910       14290.342       5.5165000      -1.2382500     -0.75800000       341.24900       1.9516988    0.0098836445
       661.99999       288.65796       98920.585       14305.499       5.1642500      -1.3825000      0.24350000       341.25700       1.9517308     0.010964699
       667.00000       288.69528       98911.559       14327.757       2.9892500      0.65775000      0.50950000       341.42100       1.9100707    0.0093885978
       671.99998       288.71188       98906.606       14349.172       2.6837500     -0.84000000      0.24900000       341.47200       1.9162148    0.0086342050
       676.99999       288.69991       98910.304       14371.464       3.5892500      0.80375000      0.82900010       341.39400       1.8923992    0.0095864629
       683.00000       288.69977       98910.273       14384.414       2.5645000      -1.1800000     -0.34625000       341.67700       1.9506695     0.011853016
       687.99997       288.70062       98908.138       14400.991       4.7085000      -1.5555000     -0.33525000       341.04600       1.9419456     0.010112815
       692.99998       288.70091       98911.397       14398.832       2.8220000     -0.13975000    -0.086500000       341.31300       1.9645609     0.011066649
       698.00000       288.68774       98917.199       14358.294       4.0225000     -0.95800010     -0.18300000       341.24900       1.9320910     0.012283422
       702.99997       288.70394       98922.817       14362.699       4.8400000      -1.0660000     -0.46700000       341.20400       1.9065386    0.0096851335
       707.99998       288.75359       98932.037       14392.248       3.4330000     -0.97350010    -0.081750010       341.38100       1.9107557     0.011068039
       713.00000       288.75755       98940.096       14395.653       2.8680000     -0.75150000    -0.038000000       341.65500       1.9120671    0.0092433377
       717.99997       288.75619       98948.680       14411.537       3.8405000     -0.28175000      0.17200000       341.55500       1.9243802     0.010975796
       722.99998       288.74991       98954.051       14412.245       3.0675000      -1.4420000     -0.16900000       341.70900       1.9337054     0.011099851
       727.99999       288.68958       98962.534       14370.082       3.2287500      -2.5692500       1.2722500       341.43500       1.9310386     0.012679007
       733.00001       288.69213       98962.109       14374.576       3.1252500      -1.8947500    -0.047000000       341.29300       1.9420752     0.011298842
       737.99998       288.74159       98952.003       14398.054       2.0440000      -1.3437500      0.34300000       341.60800       1.9622223     0.011707157
       742.99999       288.76177       98947.949       14432.106       2.9552500     -0.41325000     -0.10075000       341.54600       1.9229018    0.0095590248
       748.00001       288.80976       98941.317       14510.488       3.0712500     -0.76225010      0.30850000       341.55100       1.9506536     0.011835340
       752.99998       288.80711       98936.826       14531.399       3.9512500     -0.25000000     0.062750000       341.60100       1.9135288    0.0091017655
       757.99999       288.75689       98938.222       14536.626       4.7357500     -0.41000000    0.0030000000       341.54600       1.9316225     0.011358144
       763.00001       288.73667       98933.004       14534.325       5.5367500      0.55875000      0.54850000       341.46300       1.9462499     0.011843890
       767.99998       288.70035       98922.977       14492.722       4.6752500     -0.10975000     -0.40675000       341.37400       2.1681267     0.010799872
       773.99999       288.68538       98914.603       14466.668       4.4605000      -1.3077500      0.56700000       341.54900       2.1985751    0.0088047000
       779.00000       288.71807       98904.267       14468.019       3.9230000     -0.46625000     -0.46325000       341.39400       2.0018716    0.0088183447
       783.99997       288.68105       98901.880       14423.974       3.9547500      -1.5020000     -0.19750000       341.15800       1.9565101     0.010583019
       788.99999       288.60975       98904.691       14361.021       3.9115000     -0.34075000     -0.40300000       341.45800       1.9105061     0.012132414
       794.00000       288.56927       98905.649       14289.593       3.7037500     -0.82825010      0.27475000       341.68500       1.9742930    0.0093759322
       798.99997       288.49443       98908.616       14185.770       3.3502500     -0.12975000      0.87300000       341.64000       1.8312414     0.011338439
       803.99998       288.47139       98913.446       14109.307       3.9430000     -0.11575000    -0.081750010       341.35700       1.9352079     0.011425961
       809.00000       288.50868       98918.589       14032.946       3.2017500      -1.1560000     -0.13025000       341.34500       1.8799603    0.0096618142
       813.99997       288.48989       98924.433       13970.966       3.4840000     -0.79300000    -0.068500000       341.41700       1.9167873    0.0098296238
       818.99998       288.44472       98935.591       13899.808       3.1572500       1.0762500     -0.44975000       341.34300       1.9414605     0.011036825
       824.00000       288.44333       98939.818       13897.210       3.8185000       1.3705000      0.23775000       341.42700       2.0024178     0.013691208
       828.99997       288.43291       98940.767       13922.899       3.8175000      0.96200010    -0.058250000       341.34000       1.9450889     0.011516078
       833.99998       288.46095       98941.918       13979.998       3.1637500      -2.3302500      0.19850000       341.37800       1.9395397     0.010189076
       839.00000       288.55776       98938.603       14116.562       3.8470000     0.012750000      0.27900000       341.09900       1.9438081    0.0089827623
       843.99997       288.57055       98942.436       14181.880       4.0092500     -0.53725000      0.16450000       341.33000       1.9019067    0.0090246878
       848.99998       288.55695       98951.569       14236.873       3.7160000      -1.1930000     -0.10500000       341.39600       1.9145197     0.011846198
       853.99999       288.54833       98951.872       14285.227       3.8227500     -0.35050000     -0.23100000       341.34000       2.0627375     0.011715551
       858.99997       288.49696       98951.622       14316.223       3.8352500      0.16775000     -0.38200000       341.27500       2.4571206     0.011639006
       864.99998       288.51471       98944.863       14349.811       4.0277500      0.28700000     -0.29200000       341.30500       2.2461437     0.013119129
       869.99999       288.50587       98939.795       14339.235       4.2262500      -1.0552500    0.0090000010       341.25800       1.9288772     0.011798893
       875.00000       288.48468       98935.963       14294.673       4.4467500     -0.56075000      0.82575010       341.33700       1.9487881     0.010685114
       879.99997       288.45105       98936.790       14199.414       3.5957500     -0.90325000      0.78950010       341.34400       1.8740104     0.010371327
       884.99999       288.43080       98930.470       14133.822       5.1022500      0.15400000     -0.48225000       341.05800       1.9072385     0.013316595
       890.00000       288.38747       98919.567       14040.763       4.7175000       1.4985000      0.33400000       341.32900       1.9464448    0.0094337575
       894.99997       288.44513       98914.681       14031.354       5.0515000      0.17050000      0.44775000       341.28000       1.9130575    0.0099363290
       899.99999       288.45683       98909.480       13999.531       2.9560000      0.49450000      0.24475000       341.50900       2.0096440     0.013940096
       905.00000       288.45487       98905.762       13967.639       4.4440000      0.41725000     0.047500000       341.30000       2.1786646     0.013163249
       909.99997       288.45602       98904.639       13946.247       4.5335000     -0.22500000     -0.54500000       341.21400       2.0102137    0.0089452313
       914.99999       288.44488       98904.738       13924.642       4.8452500      0.79925010     -0.16375000       341.18600       1.9837757     0.010054270
       920.00000       288.39347       98904.785       13885.011       3.5105000     -0.35050000      0.30225000       341.43800       1.8973850    0.0098008036
       924.99997       288.38481       98906.010       13875.468       2.0170000      -1.0995000      0.63500010       341.50600       1.9234654     0.011156745
       929.99998       288.40009       98909.801       13893.520       3.2872500      -1.0140000    -0.022000000       341.18500       1.8998663     0.010171459
       935.00000       288.38531       98914.970       13852.956       4.0007500     -0.74025010    -0.033500000       341.11100       1.9443633     0.011670461
       939.99997       288.39395       98919.881       13860.534       4.7685000      -1.0132500     -0.24600000       341.29700       1.9141766     0.012490703
       944.99998       288.43006       98930.335       13906.753       3.4097500     -0.42300000      0.19525000       341.47300       1.9702161     0.011873117
       950.99999       288.45363       98937.433       13944.442       5.2102500      -1.1022500     -0.21675000       341.19300       1.9310107     0.011203235
       956.00000       288.48982       98939.327       14026.392       3.8507500     -0.49100000      0.56300000       341.46800       1.9141208     0.010044923
       960.99998       288.50825       98941.184       14067.095       5.1410000     -0.97275010      0.27000000       341.34200       1.9174465     0.010431542
       965.99999       288.51487       98940.371       14083.784       6.0827500     -0.13200000     -0.57225000       341.04700       1.9126184    0.0093668948
       971.00000       288.50368       98940.392       14076.191       4.8355000     -0.25425000      0.57825010       341.30800       1.9384745    0.0099639579
       975.99998       288.45191       98937.502       14020.162       4.8005000     -0.29850000     -0.39225000       341.13600       1.9434993     0.010289268
       980.99999       288.44312       98939.806       13998.444       4.9190000      -2.4660000     -0.25525000       341.29900       1.9104571    0.0094815097
       986.00000       288.45860       98947.233       13988.316       3.1800000      -2.0705000      0.53825000       341.48400       1.9061377     0.012518121
       990.99998       288.44875       98951.275       13952.974       4.8837500      -2.1587500     -0.57800000       341.30900       1.9325440    0.0093276017
       995.99999       288.45602       98961.161       13917.880       4.4105000      -2.4992500      0.26475000       341.14800       1.9584216     0.011254713
       1001.0000       288.45471       98962.605       13890.061       3.7837500     -0.56300000     -0.32075000       341.22800       1.8921337     0.010937745
       1006.0000       288.38038       98953.539       13791.069       4.3835000     -0.32750000    -0.040500000       341.35000       1.8895133    0.0085023198
       1011.0000       288.38459       98949.535       13782.550       4.2690000      -2.2422500    -0.044500000       341.02700       1.9178440    0.0095561020
       1016.0000       288.48225       98943.720       13879.671       3.8570000      -1.7457500      0.16175000       341.23900       1.9123647     0.010070699
       1021.0000       288.51110       98938.827       13914.462       3.1920000     -0.72300000    -0.087500010       341.36600       1.9144272     0.010368484
       1026.0000       288.56043       98936.699       13977.726       3.9387500     -0.87825010    -0.099250000       341.36000       1.9057711     0.012250773
       1031.0000       288.56700       98934.641       14006.359       5.0917500       1.0920000       1.0010000       341.46400       1.9238272     0.011227983
       1036.0000       288.46093       98934.171       13941.299       3.7870000      -2.8487500     -0.12125000       341.48900       1.9098896     0.010458659
       1042.0000       288.43146       98929.117       13945.358       2.7585000     -0.41700000      0.69625000       341.44700       1.9064832     0.012416789
       1047.0000       288.45587       98922.732       13999.721       4.0480000      -2.4755000     0.016000000       341.36400       1.9198196    0.0094390925
       1052.0000       288.44596       98918.820       14015.032       4.0670000     -0.46675000      0.17600000       341.32400       1.9271493     0.012334993
       1057.0000       288.44433       98911.191       14035.609       4.2150000      -1.9257500      0.32050000       341.25600       1.9031205    0.0096856934
       1062.0000       288.45427       98907.894       14055.759       5.2535000      -1.6172500    -0.095250000       341.08900       1.9327505    0.0088233839
       1067.0000       288.45637       98910.417       14057.767       3.9490000      0.20900000     -0.22775000       341.37300       1.9346404     0.012044238
       1072.0000       288.44619       98910.498       14053.250       4.2002500     -0.97200010     -0.29650000       341.27400       1.9300072    0.0099369326
       1077.0000       288.45641       98910.165       14075.101       4.6907500      -1.2335000    -0.079750000       341.19600       1.9176633    0.0089316318
       1082.0000       288.45283       98910.106       14055.323       3.4142500     -0.67725000      0.67775010       341.40900       1.8948233     0.010507908
       1087.0000       288.41795       98907.683       13996.851       2.8682500     -0.51625000     0.052250000       341.45500       1.9000027     0.011207281
       1092.0000       288.38820       98910.408       13934.977       2.3600000     0.080250000    -0.099000010       341.42200       1.9158293     0.011195502
       1097.0000       288.35004       98916.408       13822.758       3.1432500      -1.0367500      0.11825000       341.40200       1.8985130     0.011602116
       1102.0000       288.34420       98921.811       13773.546       3.4132500     -0.67700000      0.33650000       341.33700       1.8946261    0.0081624632
       1107.0000       288.35638       98934.404       13747.485       2.7797500      0.13700000      0.26375000       341.59000       1.9303119    0.0096592219
       1112.0000       288.34623       98938.335       13718.509       3.4800000     -0.57500000      0.91700010       341.43100       1.9096358     0.011260924
       1117.0000       288.35663       98934.489       13729.294       4.1130000      -2.1367500     -0.41300000       341.43300       1.9167308     0.011399226
       1122.0000       288.35296       98935.418       13726.054       3.8475000      -3.5920000      -1.1782500       341.14100       1.9380186     0.012882904
       1127.0000       288.29201       98934.710       13679.867       4.8532500      -2.8865000     -0.58800000       341.28100       1.9228081    0.0090192755
       1133.0000       288.29234       98935.368       13700.344       4.0360000     -0.61100000    -0.028750000       341.26000       1.9029039     0.010722746
       1138.0000       288.34211       98940.204       13766.837       2.8270000      -1.5065000      0.23850000       341.37700       1.9256823     0.010894919
       1143.0000       288.36196       98941.611       13812.696       2.5660000      -1.0727500      0.79800000       341.43400       1.9233855     0.011984489
       1148.0000       288.39853       98937.976       13890.645       3.0730000     -0.88450000      0.42075000       341.56400       1.9361839     0.010511204
       1153.0000       288.41178       98941.323       13935.390       3.3842500      -1.6557500     -0.44400000       341.12700       1.9156410     0.012472291
       1158.0000       288.38895       98950.965       13947.237       2.6367500      -1.3177500     -0.27500000       341.49600       1.9323177     0.013968495
       1163.0000       288.40536       98951.771       13988.815       2.2860000     -0.77375000      0.35850000       341.52100       1.8952896     0.010842081
       1168.0000       288.45376       98949.393       14059.972       2.2872500      -1.3577500      0.34400000       341.50200       1.9198256     0.012113428
       1173.0000       288.45772       98951.376       14075.224       2.7355000     -0.89900000      0.20875000       341.56800       1.9291130     0.010207244
       1178.0000       288.45728       98951.206       14074.094       2.2735000      -1.3350000     -0.40325000       341.28600       1.9197764    0.0098087031
       1183.0000       288.45106       98949.250       14070.025       4.5470000      -1.7580000      0.17425000       341.31900       1.9148868     0.010401302
       1188.0000       288.40124       98949.667       14012.964       4.4560000      -1.0847500     -0.37250000       341.29800       1.8912845    0.0087653984
       1193.0000       288.38792       98951.698       13998.082       3.1055000      -1.4390000      0.42275000       341.39700       1.9293203     0.010537883
       1198.0000       288.38946       98951.180       13999.878       2.6607500    -0.047500000      0.13775000       341.47100       1.8653130     0.010027690
       1203.0000       288.40608       98949.193       14018.304       3.9255000      -1.8085000     0.040750000       341.41000       1.8936138     0.010303801
       1208.0000       288.44247       98952.746       14053.785       3.5902500      -1.6162500     -0.40075000       341.29400       1.8807082     0.010031206
       1213.0000       288.46246       98949.889       14081.984       4.1532500    -0.055250000     0.094750000       341.42900       1.9489452     0.011238550
       1218.0000       288.49985       98936.209       14134.404       4.5075000      -2.1427500     -0.76175000       341.18000       1.9154693     0.011146707
       1224.0000       288.51482       98930.934       14167.890       2.9292500     -0.99025010      0.42150000       341.37300       1.9186910     0.011933837
       1229.0000       288.50007       98931.934       14174.681       3.8282500     -0.24500000      0.20425000       341.41100       1.9383177     0.013072534
       1234.0000       288.50014       98927.123       14193.423       2.2897500     -0.58750000     -0.98600010       341.36300       1.9028566     0.011395248
       1239.0000       288.50084       98921.466       14212.792       2.6222500     -0.28125000      0.13350000       341.49200       1.9134638     0.011005676
       1244.0000       288.50114       98917.488       14231.889       3.5782500      -1.4530000      0.45275000       341.32900       1.8982825     0.012450668
       1249.0000       288.50015       98909.832       14247.383       2.7870000      -1.2295000     -0.50075000       341.55500       1.9112245     0.010846510
       1254.0000       288.50028       98907.587       14272.931       4.6782500      -1.9010000    -0.053500000       341.21500       1.9183284     0.011160186
       1259.0000       288.50027       98910.142       14310.814       3.9007500      -1.6670000     -0.17000000       341.18700       1.9023555     0.010339608
       1264.0000       288.50045       98910.082       14322.889       2.9767500      -1.2310000       1.1280000       341.42900       1.9280852     0.010858511
       1269.0000       288.51838       98910.442       14345.814       1.4897500      -1.6552500      0.87575010       341.56900       1.9250133     0.010393854
       1274.0000       288.48135       98910.501       14315.537       3.1125000      -2.2580000     -0.29425000       341.27500       1.9268633    0.0097873865
       1279.0000       288.40020       98910.243       14232.864       3.1300000      -1.6015000     -0.30625000       341.39400       1.9575540     0.012504102
       1284.0000       288.37891       98910.243       14192.204       3.1370000     -0.69225000      0.17000000       341.38000       1.9180502     0.012113779
       1289.0000       288.34052       98910.433       14141.750       5.2475000      -2.0347500     -0.19050000       341.27900       1.8992853     0.012247292
       1294.0000       288.33776       98910.459       14092.444       4.2142500      -1.2602500      0.62275000       341.26400       1.9270682     0.011814433
       1299.0000       288.41201       98910.306       14071.577       3.6400000     -0.65650000      0.12175000       341.35900       1.8974519     0.012058785
       1304.0000       288.40455       98910.306       14010.191       4.2617500      -1.4447500      0.57825010       341.28100       1.9075661    0.0099607032
       1309.0000       288.34502       98908.633       13892.254       2.9772500      -1.5092500     -0.22875000       341.38500       1.8770172     0.012692773
       1315.0000       288.33013       98916.370       13853.283       3.0140000      -2.3100000     -0.30875000       341.31600       1.9136294     0.010391119
       1320.0000       288.33748       98920.376       13852.407       2.9245000      -1.1260000      0.16250000       341.33900       1.9126387     0.010289614
       1325.0000       288.36948       98924.395       13889.265       3.1522500      -1.2557500     -0.44750000       341.24200       1.9166101    0.0093334102
       1330.0000       288.45575       98931.521       13996.647       2.9225000      -1.9510000     -0.20075000       341.21700       1.9137208     0.011869228
       1335.0000       288.48488       98933.259       14055.007       2.7542500      -1.8837500     -0.41250000       341.25400       1.9261769     0.010667861
       1340.0000       288.50054       98930.462       14110.048       2.1670000      -1.1042500     -0.16375000       341.37000       1.9217208     0.010674032
       1345.0000       288.53078       98928.652       14209.025       3.7535000     -0.28325000    -0.011250000       341.28800       1.9009754     0.010897488
       1350.0000       288.55130       98929.401       14283.248       3.1872500      -1.0035000     -0.55425000       341.20100       1.9570147     0.012941970
       1355.0000       288.60017       98933.293       14399.180       3.6292500      -1.3492500     -0.99175010       341.38600       1.9632799     0.012643695
       1360.0000       288.61240       98935.284       14455.620       2.6217500      -1.9850000      0.10500000       341.41400       1.9157912     0.012339765
       1365.0000       288.60001       98937.289       14470.916       2.3952500      -1.7657500     0.078000000       341.47900       1.9463026    0.0095585213
       1370.0000       288.55109       98941.098       14431.407       2.6357500      -1.2145000      0.14950000       341.37000       1.9172288    0.0097143641
       1375.0000       288.53096       98941.997       14410.721       2.0460000      -2.4032500     0.032500000       341.35700       1.9608121     0.012154728
       1380.0000       288.49359       98940.086       14356.724       1.6105000      -2.2417500      0.28550000       341.48300       1.9317899     0.010718995
       1385.0000       288.50011       98937.284       14342.818       3.4505000      -1.3742500      0.76225010       341.39500       1.9235867     0.010414951
       1390.0000       288.50022       98939.006       14309.229       2.9485000      -1.4550000      0.19775000       341.33400       1.9200956     0.011111924
       1395.0000       288.51466       98949.419       14254.887       1.8215000      -1.4737500      0.85875000       341.54500       1.8956682     0.010602685
       1400.0000       288.50563       98951.669       14204.191       2.7972500      -3.2215000      0.27275000       341.41600       1.9606745     0.012143112
       1406.0000       288.45209       98948.805       14101.843       2.6687500     -0.58200000      0.59175000       341.57700       1.9421982     0.010435445
       1411.0000       288.44349       98950.841       14066.469       3.6405000      -1.4472500     0.052500000       341.38800       1.9451944     0.010298974
       1416.0000       288.44251       98948.888       14062.529       3.7830000      -1.3282500     -0.19200000       341.40700       1.9475204    0.0099118764
       1421.0000       288.44350       98949.133       14066.153       3.1365000     -0.36725000      0.39825000       341.43700       1.9302363    0.0099059800
       1426.0000       288.48927       98958.188       14118.544       3.7317500      -1.8675000      0.20450000       341.38400       1.9116389     0.010695804
       1431.0000       288.50797       98961.950       14154.337       2.4962500      -2.2652500      0.32475000       341.52500       1.9331637     0.010709995
       1436.0000       288.48573       98960.308       14170.635       2.9927500      -1.6982500     -0.28325000       341.30800       1.9423252     0.012442405
       1441.0000       288.49680       98960.345       14213.863       2.3980000     -0.81025000     0.026250000       341.46100       1.9292043     0.010430378
       1446.0000       288.57651       98963.146       14327.626       2.4080000     -0.93575010      0.93300000       341.54000       1.9129037     0.010071098
       1451.0000       288.56261       98960.915       14349.080       3.8670000     -0.93475000     -0.21025000       341.48200       1.9641508     0.011526487
       1456.0000       288.47597       98953.601       14340.874       3.9772500      -1.8670000      0.40450000       341.27800       1.9050238     0.011985830
       1461.0000       288.44593       98949.581       14312.932       5.3630000      -1.2142500      0.10000000       341.14300       1.8704359    0.0086911386
       1466.0000       288.36458       98942.191       14188.773       3.6772500      -1.7997500      0.26200000       341.37500       1.8872933    0.0088474520
       1471.0000       288.32826       98938.357       14108.408       2.3302500      -1.2735000      0.22400000       341.42700       1.9394594     0.011962551
       1476.0000       288.40449       98940.308       14070.712       2.2810000     -0.74225000      0.36600000       341.50300       1.9607938     0.013219619
       1481.0000       288.41230       98940.345       13993.333       2.5970000      -2.4015000      0.11525000       341.33000       1.8807176     0.010552543
       1486.0000       288.35162       98940.271       13861.175       1.1035000      -1.4005000      0.31825000       341.62800       1.8973075     0.010940580
       1492.0000       288.34279       98940.223       13780.699       2.4010000      -2.3617500      0.19850000       341.45200       1.9190321     0.011718310
       1497.0000       288.34314       98940.163       13713.484       2.1075000      -2.9100000      -1.2582500       341.44800       1.9113869     0.010043418
       1502.0000       288.34681       98940.103       13682.366       2.5505000      -2.7027500      0.43000000       341.37300       1.8857421    0.0094686450
       1507.0000       288.39507       98940.376       13725.096       3.2275000      -1.5647500    -0.052250000       341.41100       1.9598357     0.011061036
       1512.0000       288.41125       98940.395       13739.430       1.9790000     -0.24850000   -0.0062500000       341.38400       1.9009433    0.0097835807
       1517.0000       288.38696       98940.132       13734.758       2.6710000    -0.070000000    -0.077750000       341.46100       1.9083993     0.011106197
       1522.0000       288.40070       98940.051       13767.209       3.8422500      -1.4885000      0.39250000       341.42300       1.9202008     0.010886307
       1527.0000       288.43833       98940.314       13830.223       3.1680000      -2.1045000      0.47375000       341.46200       1.9546274     0.013054509
       1532.0000       288.45834       98940.354       13878.569       3.0020000      -1.6172500     -0.46850000       341.41600       1.9108712     0.012590324
       1537.0000       288.50776       98941.562       13974.798       3.0075000    -0.044750000      0.76675000       341.67300       1.9168974     0.010303174
       1542.0000       288.51003       98940.181       14000.664       3.9420000     -0.14400000      0.79150000       341.43200       1.9245153     0.011774938
       1547.0000       288.44940       98935.299       13958.372       3.9255000     -0.14925000     -0.14025000       341.25500       1.9520047     0.011372136
       1552.0000       288.44333       98934.727       13960.930       5.2525000      -1.5655000     -0.28200000       341.29100       1.9152821    0.0097776875
       1557.0000       288.43078       98936.070       13939.064       2.9197500      -1.0015000    -0.024000000       341.35600       1.8948668    0.0098190845
       1562.0000       288.44859       98935.144       13947.406       3.0742500     -0.28175000      0.98700000       341.35200       1.9064525    0.0091906692
       1567.0000       288.54764       98936.153       14032.879       4.7025000      -1.9547500     0.010250000       341.24300       1.9171082     0.010514949
       1572.0000       288.57067       98935.836       14039.181       4.2885000     -0.99150000      0.38050000       341.56000       1.9281718     0.012004281
       1577.0000       288.55736       98930.819       13994.041       4.0735000      -3.0895000     0.020500000       341.46000       1.9669496     0.013261709
       1583.0000       288.55153       98929.079       13969.533       5.2125000     -0.88950000     -0.56250000       341.46200       1.8748108    0.0094066813
       1588.0000       288.50035       98932.505       13911.236       3.6802500      -2.4012500     0.068250000       341.25300       1.9435840     0.010295098
       1593.0000       288.48628       98929.246       13885.685       4.9082500      -1.0892500     -0.12075000       341.35400       1.9216487    0.0095255492
       1598.0000       288.50025       98919.752       13899.890       3.7972500      -2.6247500     -0.17525000       341.38200       1.9091728    0.0094396801
       1603.0000       288.50042       98919.001       13883.931       4.5480000      -1.7415000     -0.29150000       341.31600       1.9290307     0.010960339
       1608.0000       288.51107       98921.162       13861.370       3.5740000     -0.67950000      0.52075000       341.34900       1.9120449    0.0085474886
       1613.0000       288.49483       98919.147       13828.096       3.8237500      0.14950000     -0.50075000       341.23600       1.9418281     0.011858428
       1618.0000       288.44662       98921.711       13757.881       3.1290000      -1.8480000      0.31225000       341.48800       1.9108091    0.0097034066
       1623.0000       288.44272       98920.500       13749.181       5.3060000      -2.4820000      0.11425000       341.22600       1.9522669     0.012783712
       1628.0000       288.44232       98911.492       13762.117       5.7117510      -1.0500000     -0.25050000       341.35000       1.8748731     0.010390758
       1633.0000       288.44825       98907.132       13775.648       4.5437500      -1.1802500      0.21600000       341.41000       1.9098497    0.0098154756
       1638.0000       288.49903       98904.882       13837.826       3.7957500      -1.0712500     -0.24625000       341.37300       1.9123368     0.011048288
       1643.0000       288.51235       98904.457       13867.447       3.7697500      -1.7547500     -0.27975000       341.41500       1.8988415    0.0097617204
       1648.0000       288.50025       98905.695       13878.708       4.7465000     -0.89575000     -0.25950000       341.25500       1.9284748     0.010213734
       1653.0000       288.50042       98904.687       13892.423       3.4147500      -1.0275000      0.52825000       341.49200       1.8797087     0.010589638
       1658.0000       288.51079       98904.857       13925.924       3.4460000      -1.5992500     -0.29475000       341.60800       1.8981140    0.0094171960
       1663.0000       288.49447       98905.849       13909.741       3.9215000     -0.37450000      0.62700000       341.46600       1.9003774     0.010870601
       1668.0000       288.44652       98904.540       13843.128       1.8465000      -1.4577500    -0.097500000       341.60800       1.8910569    0.0097222814
       1674.0000       288.44349       98905.423       13819.815       2.4220000      -2.1645000      0.13800000       341.59700       1.9373585     0.011782603
       1679.0000       288.44251       98911.467       13788.348       5.6010000      -2.3415000     -0.48500000       341.30800       1.9003990    0.0098089798
       1684.0000       288.45079       98910.736       13775.927       5.6677500      -1.9847500     -0.17300000       341.26800       1.8871796    0.0091993809
       1689.0000       288.50257       98904.705       13811.447       4.2845000      -1.6672500     -0.23175000       341.32900       1.8457477     0.012046502
       1694.0000       288.51347       98904.517       13796.165       3.9310000     -0.88675000      0.87950000       341.53200       1.9011217    0.0094944902
       1699.0000       288.50027       98904.686       13747.912       5.3197500     -0.18450000    -0.036000000       341.48800       1.9066958    0.0097440996
       1704.0000       288.50045       98905.624       13732.686       3.7312500      -1.2155000     -0.30650000       341.34200       1.9199920     0.012444209
       1709.0000       288.49110       98910.587       13701.792       3.5730000      -2.2727500     -0.24175000       341.68900       1.8765394    0.0094958282
       1714.0000       288.50964       98911.697       13727.016       3.8792500     -0.28525000     -0.47925000       341.57800       1.9045494    0.0095638855
       1719.0000       288.55500       98911.174       13809.804       3.9077500      -3.7842500     -0.14275000       341.27600       1.9220947     0.011917924
       1724.0000       288.55621       98909.317       13831.006       7.3265000      -1.6507500      0.36550000       341.32900       1.9254529     0.011005494
       1729.0000       288.54875       98904.698       13844.009       4.5087500      -1.1602500     -0.16875000       341.47200       1.9303834    0.0092579230
       1734.0000       288.55867       98904.521       13888.946       6.3757500     -0.92075000     -0.20100000       341.20500       1.9067089    0.0080156996
       1739.0000       288.54357       98905.493       13914.848       4.6637500      -1.7885000      0.26400000       341.35600       1.8859847     0.010288640
       1744.0000       288.55248       98904.486       13957.566       2.7112500     -0.58400010      0.20250000       341.41200       1.9014921    0.0091157243
       1749.0000       288.61280       98905.054       14072.407       4.8100000     -0.33225000     -0.74325000       341.30600       1.9101381    0.0088483057
       1754.0000       288.60569       98906.049       14084.105       4.3955000      -1.1795000     0.011500000       341.38300       1.8634182    0.0087784061
       1759.0000       288.54504       98904.564       14018.313       3.3465000     -0.80775000     -0.56375000       341.38500       1.9247265     0.010297001
       1765.0000       288.54513       98910.272       14005.022       1.6870000      -1.1650000      0.38950000       341.59000       1.8349102     0.013463389
       1770.0000       288.54386       98911.519       13994.663       3.1645000      -1.5722500     0.076000010       341.38700       1.9307597     0.011276832
       1775.0000       288.55482       98910.293       13995.802       3.9207500     -0.33075000      0.52550000       341.61300       1.9165399    0.0096438462
       1780.0000       288.60592       98904.568       14033.027       3.1560000     -0.10525000       1.0080000       341.61500       1.9430282     0.011252017
       1785.0000       288.61449       98904.628       14035.573       6.0947500      0.44650000      0.55500000       341.29800       1.9544601     0.010433000
       1790.0000       288.59408       98901.794       14012.305       4.6220000     -0.69025000     -0.46575000       341.49600       1.9767997    0.0096881144
       1795.0000       288.64516       98931.333       14062.428       4.5905000      -1.1522500     -0.23750000       341.25400       1.9515830     0.011600797
       1800.0000       288.65674       98939.323       14075.593       2.5572500      -1.7167500     -0.79150000       341.58000       1.9094628    0.0095675299
       1805.0000       288.65500       98939.414       14077.541       4.0787500      -1.2982500     -0.50425000       341.26100       1.8959789    0.0089025923
       1810.0000       288.65615       98939.159       14084.086       3.7935000      -1.1907500      0.25350000       341.61900       1.8983780     0.011111806
       1815.0000       288.64502       98931.502       14080.440       2.2507500     -0.88800010      0.29175000       341.66400       1.9053957     0.011854453
       1820.0000       288.59441       98901.641       14036.051       2.9640000      -1.6590000     0.038500000       341.50800       1.8650407     0.011164760
       1825.0000       288.58613       98897.574       14052.466       3.7977500     -0.38600000     0.048500000       341.58500       1.8970443     0.011059767
       1830.0000       288.60622       98904.692       14107.353       2.6190000      -1.5430000      -1.3320000       341.52800       1.9177621     0.011010546
       1835.0000       288.56925       98908.790       14121.179       4.9917500      -1.9710000     -0.94300000       341.21400       1.9298103    0.0088449498
       1840.0000       288.54900       98910.934       14119.204       4.2567500      -1.8585000      0.36900000       341.34100       1.9419431    0.0098909515
       1845.0000       288.51475       98910.395       14072.428       3.5302500      -1.4095000     -0.22300000       341.40800       1.8936438     0.011278745
       1850.0000       288.49390       98910.454       14036.343       2.6342500      -1.3232500      0.25800000       341.36800       1.9064337     0.010109249
       1856.0000       288.48588       98910.371       13980.109       2.8077500      -1.4095000      0.16950000       341.52800       1.9425593     0.010991606
       1861.0000       288.49707       98910.410       13954.334       3.6637500      -1.6352500      0.32650000       341.67700       1.9080218    0.0094549063
       1866.0000       288.53374       98910.470       13952.034       3.7440000     -0.89075010      0.57275000       341.51900       1.9031370    0.0099380734
       1871.0000       288.55395       98910.567       13934.016       3.8417500     -0.74200000     -0.25825000       341.31500       1.8833307    0.0099777779
       1876.0000       288.60400       98911.740       13931.846       3.4597500     -0.32275000      0.52975000       341.48300       1.8579428     0.010707712
       1881.0000       288.61176       98910.631       13910.569       3.6040000     -0.87400000     0.019500000       341.41100       1.9269553     0.010701927
       1886.0000       288.55149       98905.431       13828.966       2.9575000      -2.2232500     -0.76200000       341.40700       1.9240670     0.010513298
       1891.0000       288.54235       98904.516       13813.042       4.0757500      0.24550000     -0.33900000       341.23900       1.8978283    0.0096129465
       1896.0000       288.52938       98906.097       13823.058       4.2552500     -0.69900010    -0.061500000       341.21300       1.9392177     0.010901410
       1901.0000       288.54171       98905.089       13849.182       3.3080000     -0.41950000     -0.13975000       341.40800       1.9271663     0.011322778
       1906.0000       288.62437       98904.596       13938.457       3.5890000     -0.87875000     -0.28175000       341.42800       1.9153268    0.0094869117
       1911.0000       288.66322       98905.641       14005.788       3.3097500     -0.60200010    -0.030750000       341.39000       1.8880443    0.0091468336
       1916.0000       288.69018       98904.696       14081.735       3.8240000      -1.1630000     -0.14150000       341.38600       1.9044874     0.010535045
       1921.0000       288.70919       98904.819       14136.074       2.8640000     -0.64025000     -0.34950000       341.37700       1.9220273     0.011581648
       1926.0000       288.71381       98910.727       14207.157       2.6057500     -0.77575000      0.24425000       341.66300       1.8882755     0.010745689
       1931.0000       288.70252       98911.487       14220.204       2.3562500      -1.5050000      0.18850000       341.70300       1.9151649     0.010737641
       1936.0000       288.68015       98906.941       14181.683       2.4012500      -1.8535000     -0.34125000       341.43500       1.9004247     0.010492736
       1941.0000       288.64911       98904.985       14139.410       1.6745000      -1.6332500      0.28550000       341.63000       1.9316358     0.011060850
       1947.0000       288.55415       98899.656       14011.974       2.0065000      -1.4190000     -0.46875000       341.64000       1.9194899     0.011484389
       1952.0000       288.53166       98899.457       13954.136       2.6302500      -1.1540000      0.29575000       341.52200       1.9107312    0.0095451021
       1957.0000       288.54293       98905.486       13928.583       2.7802500      -1.4730000     -0.36375000       341.46900       1.9770162     0.017038563
       1962.0000       288.54715       98906.168       13883.956       2.2430000      -1.0822500     -0.15475000       341.70300       1.9116402     0.011897486
       1967.0000       288.59433       98905.852       13841.756       3.6950000      0.86100010      0.56050000       341.47800       1.9078881     0.010132531
       1972.0000       288.61072       98905.468       13815.486       3.5937500      -1.7492500      0.50300000       341.37900       1.8973135     0.011317736
       1977.0000       288.59976       98900.729       13768.180       3.2725000     -0.96425000      0.18275000       341.56600       1.9014643    0.0098493885
       1982.0000       288.59969       98899.062       13760.845       4.4060000     -0.50600000     -0.14075000       341.37700       1.9129133     0.011441169
       1987.0000       288.60026       98900.522       13805.236       3.5575000      -1.1570000     -0.42850000       341.66500       1.9360165     0.011331109
       1992.0000       288.60037       98900.622       13827.727       4.4225000      -1.5370000    -0.095250000       341.32900       1.8966786     0.010519530
       1997.0000       288.59998       98898.875       13856.274       3.8505000      -1.4072500      0.24475000       341.52100       1.9363775     0.012051090
       2002.0000       288.59998       98900.240       13885.327       2.1055000      -1.1845000      0.46350000       341.75200       1.9369299     0.011565339
       2007.0000       288.58703       98903.991       13903.555       3.4560000      -1.0260000      0.32175000       341.72700       1.9333297     0.011419330
       2012.0000       288.60087       98905.965       13938.936       5.9720000      -2.3247500     -0.15875000       341.32000       1.9035863    0.0088346724
       2017.0000       288.63863       98911.019       14007.292       4.2490000      -1.3215000      0.44750000       341.47000       1.9217294     0.010869191
       2022.0000       288.65863       98911.273       14036.191       3.0262500      -1.6410000      0.51775000       341.63300       1.9143087     0.010184291
       2027.0000       288.69526       98905.156       14054.862       3.6922500      -1.5105000     -0.21500000       341.58300       1.8507208     0.011280545
       2032.0000       288.71114       98904.532       14065.128       3.1175000      -1.1092500     0.042250000       341.52500       1.8803342    0.0087328638
       2038.0000       288.68889       98905.825       14031.609       2.8482500      -1.2900000      0.29700000       341.41300       1.9301906     0.010619126
       2043.0000       288.70502       98904.877       14035.541       2.2950000      -2.1275000      0.12050000       341.68600       1.9073281    0.0095882783
       2048.0000       288.74090       98904.969       14061.812       1.7580000      -1.5622500      0.21625000       341.92800       1.9234242    0.0096366740
       2053.0000       288.76107       98905.992       14069.675       2.7230000      -1.4907500      0.40875000       341.82200       1.9483826     0.013240366
       2058.0000       288.78813       98904.754       14069.816       3.8027500     -0.96850000      0.38150000       341.87100       1.9521146     0.010159483
       2063.0000       288.81857       98905.426       14094.771       3.3607500      -1.8367500      0.17025000       341.36800       1.9122807    0.0096203169
       2068.0000       288.83170       98910.365       14109.317       3.5590000     0.084250000      0.59400000       341.75700       1.8760443    0.0095895407
       2073.0000       288.86808       98911.819       14159.273       3.6952500      -1.2730000      0.10875000       341.49300       1.9571540     0.010104730
       2078.0000       288.96361       98910.430       14295.765       3.0290000      -1.4670000      0.15300000       341.67800       1.9216892    0.0098325625
       2083.0000       288.96480       98910.489       14310.776       1.7680000     -0.97375010      0.48200000       341.72200       1.9088111    0.0091894777
       2088.0000       288.91684       98910.460       14284.489       3.0747500      -1.1127500      0.41050000       341.40100       1.8903546     0.011410906
       2093.0000       288.89009       98910.520       14250.017       2.5157500     -0.80050000    -0.035750000       341.63500       1.9198780     0.011602337
       2098.0000       288.80212       98910.227       14123.948       3.0652500     -0.87600000      0.21350000       341.84600       1.8739573    0.0090343091
       2103.0000       288.77451       98910.184       14069.617       2.8377500      -1.0975000      0.19525000       341.68100       1.9164455     0.011855392
       2108.0000       288.81149       98908.062       14066.223       2.8507500     -0.23950000      0.63700000       342.04000       1.9021570    0.0094864337
       2113.0000       288.79558       98911.336       14020.883       3.6222500      -1.0390000      0.77425000       341.91000       1.9321990     0.012513504
       2118.0000       288.73583       98920.922       13938.496       3.5130000     -0.64025000   -0.0032500000       341.77700       1.9255811     0.011583797
       2124.0000       288.75387       98921.431       13925.732       2.4615000      -1.5815000    -0.025000000       341.72200       1.9195602     0.011125318
       2129.0000       288.78894       98921.686       13924.911       1.7770000      -1.2367500      0.33975000       341.82200       1.9228991     0.010889432
       2134.0000       288.81732       98919.994       13950.911       1.8930000      -1.4595000      0.25650000       341.82600       1.9409992     0.010992657
       2139.0000       288.93407       98907.579       14077.741       3.2622500      -1.5057500      0.14025000       341.92900       1.9715111     0.013048073
       2144.0000       288.89949       98909.037       14060.355       3.3232500      -1.3120000     -0.21525000       341.84000       1.8743577     0.010858295
       2149.0000       288.75362       98919.493       13978.586       4.2870000     -0.96000000     -0.23625000       341.10000       1.9070016    0.0099589311
       2154.0000       288.71223       98923.523       13924.842       4.4977500     -0.12000000      0.77200000       341.75500       1.9534256     0.011050987
       2159.0000       288.62817       98930.185       13791.004       4.2407500      -1.4865000      0.53050010       341.19500       1.9021992     0.011201080
       2164.0000       288.63260       98934.409       13767.222       3.8802500      -1.0852500     -0.16350000       341.42500       1.9150689    0.0092510736
       2169.0000       288.75758       98935.839       13823.160       3.7042500      -1.0592500      0.53225000       341.64200       1.9105231    0.0087886776
       2174.0000       288.76979       98935.950       13817.601       4.9845000    -0.044750000      0.62850000       341.37600       1.9162897    0.0090192618
       2179.0000       288.74838       98935.214       13819.441       4.3675000     -0.82025000     -0.12150000       341.47700       1.9202239     0.010083638
       2184.0000       288.75818       98936.235       13828.102       3.0842500     -0.64325000     -0.26775000       341.59600       1.8999332     0.011344703
       2189.0000       288.74351       98935.696       13811.833       2.4567500      -1.0260000      0.47500000       341.83900       1.9179080    0.0094986422
       2194.0000       288.75235       98934.781       13826.882       2.9197500     -0.87775000      0.24975000       341.61800       1.9062725    0.0097755978
       2199.0000       288.82156       98935.102       13892.796       3.9330000     -0.65525000      0.15300000       341.76100       1.8791957    0.0098699787
       2204.0000       288.79550       98936.110       13897.254       4.9595000     -0.68150000     -0.43700000       341.55500       1.9469605     0.015293411
       2209.0000       288.69841       98932.852       13863.697       3.7875000      -1.8715000     -0.12300000       341.73600       1.9051083    0.0094394635
       2215.0000       288.66012       98947.864       13876.801       4.9525000     -0.36875000     -0.81550000       341.18300       1.8837585    0.0093086310
       2220.0000       288.63773       98952.258       13874.427       4.0300000     -0.80900000    -0.043500000       341.64600       1.9001487    0.0087606807
       2225.0000       288.63997       98952.958       13874.559       3.6315000     -0.76575010      0.46675000       341.67300       1.9232578     0.010134010
       2230.0000       288.71990       98951.545       13916.465       5.1565000      -2.1067500     0.047750000       341.46900       1.9106684     0.010052197
       2235.0000       288.68566       98949.146       13858.972       5.3810000      -1.0922500     -0.23750000       341.55200       1.9189923     0.010044704
       2240.0000       288.58789       98938.951       13728.075       4.0250000     -0.62675010      0.12775000       341.76300       1.8732394    0.0088575041
       2245.0000       288.59106       98937.280       13702.128       2.6950000      0.21950000       2.1992500       341.69600       1.9261130    0.0080221179
       2250.0000       288.58836       98938.982       13680.063       4.1647500    -0.081250000       1.0637500       341.69900       1.9104276    0.0089954938
       2255.0000       288.67027       98949.391       13741.930       5.7432500     -0.19300000    -0.037000000       341.46900       1.9007089    0.0087521920
       2260.0000       288.71214       98951.661       13780.003       4.8672500      0.59825000     -0.27175000       341.33400       1.9351642    0.0092641960
       2265.0000       288.72937       98951.472       13805.457       4.8920000     -0.68750010      0.21775000       341.58400       1.9078889    0.0082762759
       2270.0000       288.70621       98951.536       13800.405       3.9922500      0.42250000     -0.27875000       341.55200       1.9235784    0.0089136892
       2275.0000       288.68439       98949.116       13812.106       2.5445000      0.54900000      0.14225000       341.88100       1.9602458    0.0093254233
       2280.0000       288.65040       98937.862       13836.382       3.1187500      -1.0270000      0.21125000       341.58100       2.1662334    0.0089774900
       2285.0000       288.61510       98946.447       13822.825       6.1192500      0.48000000      0.38250000       341.46600       2.0573264    0.0091155852
       2290.0000       288.59370       98950.505       13820.477       7.0572500    -0.059250000      0.16250000       341.16600       1.9442864    0.0094978235
       2295.0000       288.60004       98960.320       13819.057       5.0562500      -1.5837500     -0.17200000       341.42400       1.9092125    0.0092903614
       2300.0000       288.60001       98962.710       13818.494       4.0320000      -1.3582500      0.15450000       341.64600       1.9190747    0.0098754341
       2306.0000       288.60022       98953.670       13833.622       5.3425000    0.0012500000      0.31800000       341.36000       1.9038758    0.0082167582
       2311.0000       288.60019       98949.759       13833.497       5.9807500      -1.2227500    -0.029250000       341.16000       1.9231657    0.0098852392
       2316.0000       288.59998       98939.361       13817.280       5.9802500      -2.1210000      0.14000000       341.34700       1.9241780    0.0081392971
       2321.0000       288.59998       98937.887       13812.260       3.6132500      0.89750000    -0.085750010       341.60600       1.9262505    0.0090587619
       2326.0000       288.58598       98949.946       13793.971       6.1717500      0.10825000     -0.92325000       341.39800       2.0530904    0.0097246510
       2331.0000       288.59737       98951.747       13798.622       4.6790000     -0.23325000    -0.033750000       341.56000       2.0013842    0.0093249083
       2336.0000       288.64851       98951.463       13852.841       4.3112500      0.15175000      0.33075000       341.63600       1.9908962    0.0092644792
       2341.0000       288.65748       98951.230       13856.706       5.4042500     -0.96300010    0.0042500000       341.26500       1.9430808    0.0092645909
       2346.0000       288.65641       98942.127       13832.573       5.7072500      0.75750010      0.35800000       341.47900       1.8902302    0.0089451912
       2351.0000       288.65519       98938.393       13823.397       5.2050000      -1.5592500     0.024000000       341.31200       1.9280670    0.0092133228
       2356.0000       288.60923       98941.796       13768.577       3.6685000     0.064500000     0.099500010       341.51600       1.7671489     0.014342482
       2361.0000       288.59047       98940.667       13755.068       3.8557500     -0.24400000      0.81825010       341.59400       1.8908248     0.010234755
       2366.0000       288.61432       98937.019       13817.524       3.9910000     -0.90200010      0.75050000       341.62700       1.9135785    0.0092884242
       2371.0000       288.60316       98935.064       13813.847       4.0155000      -1.9257500      0.14850000       341.61200       1.8984894    0.0096611932
       2376.0000       288.56517       98931.069       13773.995       4.5032500     -0.95550010     0.028000000       341.25700       1.9169769    0.0089290898
       2381.0000       288.54499       98929.134       13749.801       3.9857500     -0.49600000    -0.046250000       341.28400       1.9030504    0.0093417708
       2386.0000       288.50940       98934.651       13679.478       3.5477500      -1.3042500     -0.33450000       341.36500       1.9106106    0.0099123167
       2391.0000       288.49093       98931.314       13646.534       4.4072500      -2.1102500     -0.53825000       341.38300       1.9035345    0.0086585345
       2397.0000       288.51281       98913.687       13662.938       4.1812500      -1.6942500      0.14425000       341.50600       1.9145213     0.010985636
       2402.0000       288.49920       98913.149       13652.888       3.4007500     -0.47450000      0.34925000       341.64300       1.8977755     0.010577073
       2407.0000       288.44934       98920.626       13622.790       2.9412500      -1.3855000     0.085250010       341.44200       1.8815615    0.0096991274
       2412.0000       288.44306       98919.648       13624.592       3.7560000      -2.0500000     -0.48625000       341.34300       2.0284313     0.017883777
       2417.0000       288.43074       98926.854       13619.231       4.4607500      -3.4567500     0.063500000       341.46100       1.9194225     0.011021600
       2422.0000       288.44835       98927.484       13648.206       5.3235000      -1.3207500      0.12100000       341.37100       1.9049749     0.010043819
       2427.0000       288.54669       98911.645       13752.255       4.7655000      -1.7090000     -0.31900000       341.45600       1.9833963     0.021412197
       2432.0000       288.56977       98906.662       13787.092       4.8127500     -0.88100000     0.093500000       341.26400       1.8906286     0.010824679
       2437.0000       288.55690       98910.378       13799.304       5.0447500      -2.4772500      0.26875000       341.29300       1.9200751    0.0089560714
       2442.0000       288.55314       98910.419       13810.791       4.6425000      0.25150000      0.24975000       341.46900       1.8525303     0.010323444
       2447.0000       288.49159       98910.489       13762.854       5.6327500      -1.5185000      0.44900000       341.39700       1.9510834     0.010920069
       2452.0000       288.48945       98910.589       13767.475       6.1885000      -1.4137500      -1.1770000       341.26100       1.8956336    0.0099776843
       2457.0000       288.55129       98911.609       13829.909       4.1190000     -0.15000000     -0.16225000       341.47100       1.9040584    0.0086072780
       2462.0000       288.55763       98910.249       13836.254       6.0200000     -0.45450000      0.15525000       341.42200       1.8972434    0.0089062516
       2467.0000       288.54398       98906.278       13815.683       3.3632500      0.23900000      0.29800000       341.47300       1.8842157    0.0092500822
       2472.0000       288.55406       98904.206       13821.379       4.4902500     -0.63825010      0.60575000       341.47000       1.9432050     0.010659125
       2477.0000       288.52992       98900.810       13793.572       4.3062500      -1.0537500      0.28275000       341.49300       1.9218939    0.0098312886
       2482.0000       288.54737       98899.220       13806.559       5.0082500     -0.71400000     0.086250010       341.54100       1.9113378     0.010020092
       2488.0000       288.64078       98900.168       13882.319       5.2960000     -0.20175000     -0.34125000       341.31900       1.8883420    0.0081979166
       2493.0000       288.67418       98900.152       13927.192       3.7580000      -1.7210000      0.10450000       341.39400       1.9151267    0.0087129180
       2498.0000       288.69960       98900.089       13972.891       4.4477500       1.3895000   -0.0075000000       341.53400       1.9220077    0.0096571418
       2503.0000       288.71338       98900.030       14019.002       2.7557500     -0.46775000       1.0180000       341.53700       1.8577050    0.0099950489
       2508.0000       288.70062       98900.246       14073.984       4.8770000     -0.50750010      0.89200000       341.35000       1.9168638     0.010456157
       2513.0000       288.70090       98900.274       14108.453       3.9612500       1.7540000      0.86225000       341.38000       1.9014504    0.0092810215
       2518.0000       288.72240       98900.352       14159.905       3.6837500      0.39450000     -0.10250000       341.55600       1.9163240    0.0090829484
       2523.0000       288.69021       98900.395       14143.833       5.1900000      -1.0355000      0.45000000       341.42600       1.9241177    0.0096474324
       2528.0000       288.60450       98900.385       14063.095       4.3955000      -1.1747500     -0.31075000       341.50500       1.9219859    0.0091323918
       2533.0000       288.58086       98900.429       14025.656       4.0067500     -0.78375010     0.023750000       341.39300       1.9002296    0.0090190715
       2538.0000       288.54322       98899.466       13964.094       4.2140000      -1.1200000       1.0082500       341.58000       1.9149330     0.011095503
       2543.0000       288.53652       98901.246       13916.009       5.2680000      -1.0615000     -0.80475000       341.37800       1.9404568     0.011872940
       2548.0000       288.59876       98904.531       13908.545       3.3927500     -0.32500000      0.24275000       341.66800       1.8781195     0.010315351
       2553.0000       288.61257       98906.574       13858.488       4.6310000      0.83775000    -0.099250000       341.53000       1.9008675     0.010251225
       2558.0000       288.59974       98907.926       13751.954       2.9532500      -1.0467500      0.97300000       341.73500       1.9320490     0.010850074
       2563.0000       288.59968       98912.526       13710.198       5.4900000      -2.8865000     -0.10925000       341.46300       1.9041132     0.010242505
       2568.0000       288.58870       98918.943       13674.900       4.0320000     -0.65800010     -0.88075010       341.50000       1.8765653     0.010444731
       2573.0000       288.60485       98922.973       13679.135       5.7727500     -0.94300000     -0.46900000       341.44200       1.8880832    0.0087213087
       2579.0000       288.64576       98931.016       13749.240       4.9620000      -1.3105000    -0.021250000       341.37000       1.8933669    0.0090156040
       2584.0000       288.66555       98933.341       13787.915       4.8922500     -0.82975010     -0.60950010       341.44300       1.8761350    0.0092089842
       2589.0000       288.69357       98930.392       13825.697       3.1550000     -0.84700010     -0.84425000       341.48000       1.8995534     0.014327478
       2594.0000       288.72363       98930.438       13900.971       3.7532500     -0.62300000     -0.19525000       341.38800       1.8741825    0.0099422182
       2599.0000       288.75442       98929.333       14012.642       4.2395000      0.75950000    -0.085250010       341.46700       1.8884125    0.0098513747
       2604.0000       288.75546       98931.174       14058.489       3.5017500     -0.98925010      0.77500000       341.40300       1.8977232    0.0099516113
       2609.0000       288.75625       98934.845       14118.613       6.4582510       1.0887500    -0.045000000       341.35500       1.9386078    0.0097056493
       2614.0000       288.74761       98936.828       14129.594       5.6280000    -0.037500000     -0.45650000       341.27500       1.8794113     0.010223279
       2619.0000       288.68812       98941.639       14053.409       5.4225000     -0.40225000      0.94525000       341.45100       1.9309305    0.0087242361
       2624.0000       288.69559       98940.947       14051.941       3.6632500     -0.30125000      0.28975000       341.63800       1.8950774    0.0097324643
       2629.0000       288.75422       98935.721       14085.417       3.9557500      -1.1305000      0.84200010       341.61600       1.9097646    0.0088369937
       2634.0000       288.75528       98933.685       14073.684       2.6910000      -1.8290000     -0.50225000       341.30900       1.8894977    0.0090886944
       2639.0000       288.75734       98930.001       14064.665       3.1670000      -2.1372500     -0.38175000       341.53500       1.9257539     0.010423963
       2644.0000       288.74884       98928.856       14035.244       3.5512500     -0.42725000      0.51675000       341.41200       1.9022864     0.010019042
       2649.0000       288.68740       98930.360       13947.259       2.4427500      -1.0027500     -0.13850000       341.51600       1.8733609     0.010573830
       2654.0000       288.69469       98930.406       13943.967       2.2085000      -1.8467500      0.33125000       341.64800       1.8682170     0.010370591
       2659.0000       288.74644       98932.290       13976.813       2.6375000      -1.1742500      0.13025000       341.73600       1.8998955     0.012031800
       2664.0000       288.76635       98928.650       14001.451       2.4680000    -0.020500000      0.23750000       341.56800       1.8864437     0.011364588
       2670.0000       288.80607       98920.415       14076.659       3.3432500      -1.1367500     -0.29650000       341.72500       1.8806670     0.011765800
       2675.0000       288.81475       98916.454       14103.521       2.4092500     -0.77475010      0.40275000       341.77000       1.9174877    0.0090242895
       2680.0000       288.79389       98909.248       14102.508       3.5027500      -1.3127500    -0.030000000       341.35200       1.9048969    0.0090478522
       2685.0000       288.81553       98907.609       14145.214       2.9627500     -0.68100010     0.093000000       341.81900       1.8923464     0.011189037
       2690.0000       288.85643       98910.493       14205.561       4.2135000     -0.89800010      0.71750000       341.80700       1.8948280     0.010616150
       2695.0000       288.83951       98910.189       14234.360       3.6517500     -0.14225000      0.46375000       341.62800       1.9542204     0.011169619
       2700.0000       288.84931       98910.130       14270.470       4.0677500     -0.80500010     -0.43950000       341.35700       1.9197124     0.011376205
       2705.0000       288.83003       98910.394       14274.491       3.4545000     -0.82800010     -0.12325000       341.49100       1.9241672     0.010075991
       2710.0000       288.83756       98910.454       14297.071       4.4780000     -0.62875000     0.036750000       341.54200       1.8993271     0.010302523
       2715.0000       288.86967       98910.513       14333.414       3.7137500      -1.2610000     -0.23325000       341.42800       1.8952135    0.0085664496
       2720.0000       288.96813       98911.027       14415.236       2.7275000      -1.2125000     -0.15925000       341.53000       1.9191684     0.010722446
       2725.0000       288.95341       98908.864       14397.742       3.4465000      -1.6455000     -0.19800000       341.52500       1.9102851    0.0097117953
       2730.0000       288.91161       98904.459       14360.533       2.3125000      -2.1245000     -0.29475000       341.74700       1.9041081     0.010509768
       2735.0000       288.78438       98904.623       14221.376       3.2057500      -1.7765000      0.17425000       341.63500       1.9075170    0.0087780952
       2740.0000       288.72990       98904.434       14122.010       2.4462500      -1.0692500    -0.050500000       341.86600       1.9211451     0.010214160
       2745.0000       288.74515       98908.879       14033.484       2.5780000      -1.0902500    -0.022500000       341.70100       1.9095059    0.0084487592
       2750.0000       288.74407       98910.988       13948.351       2.9647500      -1.9795000     0.075000000       341.55600       1.9463904     0.010388961
       2756.0000       288.79039       98911.761       13847.900       3.9290000      -1.6242500     -0.36400000       341.15800       1.8687895     0.010767425
       2761.0000       288.80921       98910.655       13796.289       3.0480000      -1.7447500     -0.32600000       341.49500       1.9349385     0.016377715
