MIRICO/SHELL project - Processed LDS file generated on
Thu Jul 27 18:54:34 2017
Time stamp for record start
05/12/2017  14:02: 6.0001
Nb of points in the record
         547
Beam position index
       6.0000000
Beam angle (degrees)
       13.594000
Open Path length (m)
       58.300000
****************** Temporal data record ************************
Elapsedtime_sec Temp_K Press_Pa Humidity_ppmv WindX_m/s WindY_m/s WindZ_m/s Speedofsound_m/s CH4vmr_ppmv CH4vmrerror_ppmv  
      0.00000000       288.64843       98931.263       13829.423       4.7627500      -2.4250000     -0.83400010       341.35000       1.8445576     0.020244482
       4.9999729       288.64194       98940.122       13836.943       3.5105000     -0.59475000       1.1087500       341.66700       1.8075700     0.025677025
       9.9999860       288.65174       98948.725       13862.700       3.8407500      -1.2955000    -0.051750000       341.40100       1.7616017     0.023712614
       14.999999       288.64300       98945.984       13873.137       4.6460000     -0.98500010     -0.13075000       341.50400       1.8820286     0.018661033
       20.000012       288.64444       98944.069       13892.999       5.0967500      -1.4340000      0.57925000       341.29600       1.8210534     0.021804612
       24.999985       288.67597       98954.782       13941.203       3.0842500      -2.3122500     -0.14475000       341.56000       1.8937286     0.019986594
       29.999998       288.70629       98953.062       13985.332       3.1302500      -1.0382500      0.62725000       341.48900       1.8836326     0.019079562
       35.000011       288.74887       98931.776       14041.652       3.1300000      -1.2292500     -0.11100000       341.45700       1.9251161     0.020340986
       39.999984       288.75803       98921.954       14064.184       4.3827500      -1.2200000      0.64000000       341.43200       1.8355997     0.020953110
       44.999997       288.75603       98910.157       14071.426       5.0622500      -1.0370000    -0.031250000       341.43900       1.9104532     0.014713005
       50.000010       288.75451       98906.778       14079.671       3.7582500     -0.46275000      0.93100010       341.51500       1.8531413     0.019405336
       54.999983       288.71026       98913.033       14047.442       5.7577510      -1.5240000     -0.49200000       341.25300       1.8909477     0.018177505
       60.999991       288.68961       98922.364       14038.184       4.4952500      -1.2475000     -0.21725000       341.31700       1.8769857     0.017745466
       66.000004       288.71322       98943.087       14065.787       4.0130000      -2.9157500      0.15350000       341.38200       1.8838216     0.020813440
       70.999977       288.69918       98949.544       14061.220       3.8180000     -0.71875010     -0.25300000       341.47100       1.8217739     0.023378225
       75.999990       288.64950       98952.231       14022.422       2.1267500      -1.9857500      0.70200000       341.53800       1.8721000     0.019592415
       81.000003       288.64329       98951.714       14028.557       2.8815000      -1.3310000    -0.075500000       341.41900       1.9005047     0.019411534
       85.999976       288.65632       98941.199       14062.924       3.4860000     0.058500000      0.52250000       341.61300       1.9419603     0.025071327
       90.999989       288.64632       98931.808       14063.032       2.3372500   -0.0092500000      0.22175000       341.66000       1.8036114     0.021175520
       96.000002       288.65706       98918.247       14079.158       2.4835000     -0.19050000     0.067000000       341.67800       1.7154549     0.021964112
       100.99998       288.65325       98912.120       14078.824       3.5720000      -1.2800000     -0.13775000       341.63900       1.8760812     0.019037208
       105.99999       288.60497       98901.488       14022.850       3.8212500      -1.9552500      0.65025000       341.49300       1.9575375     0.022944911
       111.00000       288.58896       98902.846       14007.668       4.1512500      -2.6677500    -0.096250010       341.32900       1.8848640     0.018886459
       115.99997       288.61224       98921.200       14042.109       3.7240000     -0.94475010      0.64000000       341.38900       1.8680251     0.019681899
       120.99999       288.59817       98928.863       14024.183       3.7280000      -1.8930000     -0.22675000       341.45200       1.8384839     0.019767188
       126.00000       288.56126       98938.929       13982.398       5.1907500      -2.0435000      0.52175000       341.36600       1.8293289     0.022508223
       130.99997       288.54126       98943.903       13948.060       5.1347500     -0.40200000     -0.16375000       341.40200       1.8880626     0.021418726
       135.99999       288.49214       98944.227       13865.918       5.9037500     -0.85375010     -0.15475000       341.16300       1.8334862     0.020338434
       141.00000       288.48986       98940.069       13839.989       6.8317500      -1.5692500    -0.043500000       341.26900       1.9125494     0.018922893
       146.00001       288.55124       98929.028       13869.572       4.9842500     -0.95275000     -0.64225000       341.27000       1.8925763     0.021400061
       151.99998       288.55745       98921.938       13857.724       3.4225000     -0.84000000     -0.73625000       341.40500       2.0059958     0.018211767
       156.99999       288.55857       98910.779       13853.734       4.6645000     -0.69825010       1.1280000       341.44800       1.9326718     0.019433339
       162.00001       288.55228       98906.789       13843.665       6.3040000      -2.5812500     -0.51025000       341.34900       1.9162919     0.019729401
       166.99998       288.50084       98907.875       13797.897       6.0025000      -1.1940000      0.12400000       341.33100       1.9238433     0.014927801
       171.99999       288.48676       98911.039       13790.725       5.9800000      -1.9035000    -0.086000000       341.22000       2.0255908     0.020729083
       177.00001       288.52221       98917.565       13841.310       6.5870000      -1.1147500     -0.24675000       341.24700       1.8992742     0.018713137
       181.99998       288.49001       98923.167       13810.069       3.6707500      -1.3365000      0.29575000       341.36700       1.9111968     0.021697652
       186.99999       288.41590       98934.449       13745.162       2.9602500      0.10500000       1.0385000       341.57100       1.8533042     0.019259023
       192.00000       288.37615       98939.170       13688.670       5.0515000      0.47050000     -0.12400000       341.37500       1.8459715     0.019414513
       196.99998       288.30132       98941.379       13568.699       5.2007500     -0.19325000     -0.18850000       341.24700       1.9278576     0.018865599
       201.99999       288.27421       98941.062       13513.666       5.7557500     0.044750000     -0.16200000       341.34500       1.8700759     0.020017328
       207.00000       288.30047       98939.636       13502.924       5.4772500      -1.1075000      0.54375000       341.23400       1.8761239     0.018584625
       211.99998       288.30076       98932.824       13475.771       5.6432500      -1.9412500      0.16275000       341.23500       1.8626355     0.021333745
       216.99999       288.30004       98916.363       13457.383       5.1982500       1.2232500     0.012500000       341.29200       1.8396325     0.019719428
       222.00000       288.29999       98910.576       13439.518       4.9672500     -0.54125010     -0.42500000       341.41100       1.8754430     0.018460491
       226.99998       288.28901       98902.327       13409.625       4.8880000       1.0430000    -0.022500000       341.27500       1.8681243     0.017448961
       231.99999       288.30529       98903.463       13412.883       5.6970010      -1.2667500     -0.25950000       341.29400       1.8909827     0.017304245
       237.00000       288.34187       98915.180       13439.591       4.9557500    -0.010750000      0.64500000       341.31700       1.8769304     0.017917227
       243.00001       288.36555       98927.599       13463.353       4.9230000      -1.3377500      0.47900000       341.30900       1.9127518     0.015772764
       247.99998       288.40306       98944.244       13502.596       4.5115000      -1.4155000     -0.36125000       341.34500       1.9629908     0.021298728
       253.00000       288.41419       98952.462       13532.168       4.6360000      -1.8120000      0.41475000       341.28400       1.8459357     0.017575703
       258.00001       288.40009       98962.942       13546.917       2.8900000      -1.1570000      0.63925000       341.45000       1.8822411     0.016070890
       262.99998       288.40009       98962.681       13589.231       6.6262500      -2.4562500     0.087500010       341.22500       1.8992164     0.019251793
       267.99999       288.39112       98953.684       13648.808       5.0997500      -1.6632500     -0.18950000       341.18900       1.8294585     0.017936854
       273.00001       288.40967       98944.114       13703.432       5.9765010      -2.4557500     -0.38450000       341.21800       1.9837428     0.015943648
       277.99998       288.45481       98926.651       13793.001       3.9262500      -1.1820000      0.36800000       341.30100       1.9202713     0.020847540
       282.99999       288.45615       98916.550       13803.308       4.4767500      0.26600000      0.47800000       341.36200       1.8947758     0.017630531
       288.00001       288.45790       98901.939       13778.049       5.3607500      -3.0352500     -0.25325000       341.07700       1.9009594     0.017390711
       292.99998       288.44881       98902.286       13757.458       4.9157500      -1.6450000      -1.1100000       341.18100       1.8523913     0.018992465
       297.99999       288.38872       98913.080       13677.651       4.3075000      -1.4475000     -0.36850000       341.29700       1.9053232     0.018391629
       303.00001       288.39638       98919.889       13663.587       6.2077500      -1.3912500     -0.64150010       341.13800       1.8260190     0.015931106
       307.99998       288.44649       98934.217       13692.089       2.9162500     -0.74375000      0.43000000       341.36900       1.8107714     0.018051774
       312.99999       288.46642       98943.343       13685.565       1.8077500      -2.1952500       1.1985000       341.43000       1.8352198     0.019417933
       318.00001       288.51255       98949.837       13688.983       3.1562500     -0.69925000     0.032750000       341.35200       1.8511181     0.018625303
       322.99998       288.50525       98954.938       13664.947       2.9757500     -0.66875000      0.55475000       341.41000       1.8053489     0.018977720
       327.99999       288.44478       98963.520       13589.625       3.3830000     -0.61325000     0.037250000       341.37500       1.8843161     0.016217128
       334.00000       288.44447       98958.794       13604.797       3.3890000      -3.6067500     -0.65150000       341.38100       1.8654746     0.015203793
       339.00001       288.44951       98946.888       13646.581       4.1585000      -1.5735000     -0.15950000       341.39300       1.8943846     0.017536519
       343.99998       288.43963       98936.520       13669.157       4.8537500      -1.5635000     -0.41650000       341.17400       1.8703492     0.018900851
       349.00000       288.44989       98918.682       13727.406       4.4647500      -1.7495000     -0.39875000       341.08900       1.9000507     0.018858672
       354.00001       288.43119       98910.297       13739.743       4.5917500     -0.52850000     -0.58600000       341.25700       1.8248586     0.018486097
       358.99998       288.43862       98907.666       13787.516       2.7875000      0.23950000       1.6090000       341.51400       1.8623425     0.017992575
       364.00000       288.53041       98911.704       13935.502       3.7302500     -0.30250000      0.84625010       341.55900       1.8633738     0.017682734
       369.00001       288.56256       98918.243       14012.951       2.8877500      -1.2380000      0.13275000       341.56600       1.9019450     0.019599383
       373.99998       288.57007       98928.477       14063.066       2.5787500     -0.83575000      0.26050000       341.50000       1.9506734     0.019130730
       379.00000       288.55750       98946.248       14099.391       3.4230000     -0.91300000     -0.74825000       341.35000       1.8863424     0.017824706
       384.00001       288.54595       98954.010       14113.498       4.0442500      -2.1402500     -0.50400000       341.21100       1.8517408     0.016277810
       388.99998       288.49454       98962.182       14071.477       2.8327500      -1.1480000       1.0172500       341.54600       1.8200551     0.016957301
       394.00000       288.51454       98964.657       14120.684       5.5102500      -2.1227500      0.19775000       341.18900       1.8930025     0.019375708
       399.00001       288.50577       98962.033       14108.043       3.7502500      -2.0277500     -0.10625000       341.36300       1.9384732     0.016293184
       403.99998       288.46980       98954.401       14047.315       3.0597500      -2.1735000      0.16750000       341.45700       1.8458041     0.017487449
       408.99999       288.44989       98946.791       13994.142       3.2687500      -1.6435000      0.14100000       341.46300       1.8235263     0.017504517
       414.00001       288.41485       98930.147       13873.019       4.4512500      -2.0307500     -0.59625010       341.28500       1.8413274     0.017063037
       418.99998       288.39371       98918.909       13796.977       4.0550000     -0.77875010     -0.13125000       341.35600       1.8337161     0.017411485
       424.99999       288.38497       98904.466       13732.310       3.8560000      -1.0107500      0.11700000       341.51000       1.8119485     0.016676846
       430.00000       288.39619       98902.079       13713.967       3.7717500      -1.1585000     0.067000000       341.35100       1.8656153     0.014645076
       434.99997       288.44786       98910.163       13753.728       3.9510000      -1.2922500     -0.15575000       341.35200       1.7829710     0.019109519
       439.99999       288.45650       98915.451       13765.694       4.1395000      -1.2967500    -0.065500010       341.42200       1.8837335     0.015917822
       445.00000       288.45564       98930.753       13791.733       3.9027500     -0.38075000      0.24625000       341.28700       1.9176097     0.019421469
       449.99997       288.45453       98938.477       13813.658       3.5095000     -0.82900010     -0.37325000       341.48900       2.6693667     0.017194271
       454.99999       288.39573       98936.607       13800.056       3.6180000     -0.87875000     -0.74100010       341.32700       2.3177155     0.021986256
       460.00000       288.38857       98940.745       13821.127       3.2715000      -1.7445000     -0.21550000       341.48600       1.8512678     0.019719099
       465.00001       288.43361       98950.022       13884.144       2.9730000     -0.68900000     -0.23100000       341.29300       2.4517432     0.015543556
       469.99999       288.45374       98951.801       13921.489       4.0042500     -0.51600000     -0.31800000       341.45700       3.0110230     0.015588686
       475.00000       288.49003       98955.626       13963.915       3.5012500      0.19900000      0.62800000       341.41000       4.1065690     0.015404948
       480.00001       288.50897       98951.971       13996.276       3.6705000      0.71175000      -1.1837500       341.47300       3.1849060     0.017755270
       484.99998       288.50019       98933.152       14007.937       3.1185000     -0.55825000      0.19375000       341.49500       2.8679652     0.016501817
       490.00000       288.50034       98922.215       14020.393       4.1242500      -1.4412500     -0.14025000       341.32900       3.1849158     0.015907903
       495.00001       288.50026       98908.309       14033.555       3.1370000      0.19625000      0.96400000       341.54800       3.8388452     0.016956308
       499.99998       288.50037       98901.927       14041.277       4.3112500      0.82475010     -0.54325000       341.38000       2.5590616     0.016228549
       505.00000       288.50006       98904.650       14045.058       2.8045000     -0.88950000      0.23150000       341.47100       2.7458825     0.015385671
       511.00000       288.50011       98904.915       14037.013       2.5075000     -0.84275000     -0.10375000       341.63600       6.5724291     0.018890867
       515.99998       288.48669       98905.971       13999.875       2.3545000     -0.85400000      0.15525000       341.63600       3.6255700     0.019669187
       520.99999       288.50058       98911.844       14005.811       2.3050000      -1.5100000     0.080750000       341.63900       2.5851568     0.015637989
       526.00000       288.53785       98921.504       14022.419       3.1412500      -1.2997500      0.51425000       341.55500       2.3904164     0.017046992
       530.99998       288.55792       98927.471       14048.282       2.1777500     -0.28050000      0.47175000       341.66200       2.4351850     0.016225026
       535.99999       288.59515       98936.359       14118.622       1.9232500      -1.3932500     0.075500000       341.48500       2.5503684     0.015490911
       541.00000       288.61173       98944.090       14163.375       4.1330000      -1.3285000      0.58550000       341.37300       1.9901444     0.016904258
       545.99998       288.59981       98950.656       14186.855       4.2327500      -1.6307500      0.10050000       341.32000       1.8819272     0.014203042
       550.99999       288.59965       98951.943       14227.693       5.1822500      -2.4930000     -0.35875000       341.31900       1.8721050     0.014825627
       556.00000       288.61409       98953.315       14307.308       3.4855000     -0.39325000     -0.37225000       341.45400       1.8549747     0.016223654
       560.99997       288.60042       98951.171       14320.977       2.9567500     -0.75950000      0.53300010       341.72300       1.8707613     0.015201532
       565.99999       288.53633       98939.990       14282.057       3.9870000      -2.2952500     -0.28725000       341.30500       1.9416272     0.020056090
       571.00000       288.54408       98931.934       14289.737       3.7855000      -1.6677500     -0.33500000       341.41400       2.3507490     0.019188093
       575.99997       288.59468       98924.194       14292.036       1.9667500      -1.2982500    -0.038250000       341.68300       2.5124336     0.020127496
       580.99999       288.60476       98917.147       14274.960       2.1402500     -0.61500000      0.16125000       341.75800       2.4507112     0.016318503
       586.00000       288.65236       98899.816       14287.653       2.3482500     -0.92875000      0.38300000       341.49900       2.0101395     0.017926450
       591.00001       288.66450       98902.968       14278.756       2.6655000      -1.5172500     -0.29225000       341.64800       2.1149052     0.015120346
       595.99999       288.60498       98923.582       14206.594       2.1867500      -1.5217500      0.19125000       341.55600       2.0666659     0.016519055
       601.99999       288.58697       98936.040       14178.313       3.4957500      0.47700000      0.43275000       341.65100       1.9420550     0.014886585
       607.00001       288.58909       98962.218       14183.521       5.4472500      0.14200000     -0.18875000       341.15000       1.9215872     0.022410275
       611.99998       288.60575       98967.145       14198.201       3.7377500      -2.5375000    -0.028250000       341.17300       1.8097128     0.018326642
       616.99999       288.65315       98949.803       14242.542       3.9025000      -1.8312500     -0.29425000       341.36500       1.8223347     0.016439261
       622.00001       288.65698       98949.083       14249.189       2.4270000      -2.4615000     -0.14075000       341.34100       1.8282236     0.017073779
       626.99998       288.65682       98948.909       14249.750       2.4407500     -0.61475000      0.40800000       341.60100       2.1025459     0.014347685
       631.99999       288.65082       98950.110       14256.519       3.2440000      0.45175000      0.12400000       341.67300       2.2811166     0.016055912
       637.00000       288.60090       98962.534       14235.519       4.8037500      -2.5407500     -0.36400000       340.97200       2.3842545     0.015679664
       641.99998       288.58733       98962.109       14236.364       5.8102500      0.64400010     0.083500010       341.33400       3.0433909     0.015664859
       646.99999       288.58862       98955.564       14260.853       6.0920000      -1.9987500     -0.60700010       340.97200       2.5424450     0.017574033
       652.00000       288.60521       98946.596       14278.975       5.8570000      -1.2637500      0.82150010       341.52500       3.5575996     0.017124418
       656.99998       288.64198       98927.847       14293.223       5.2247500      -1.2725000     -0.52850000       341.27600       3.5725356     0.015230959
       661.99999       288.66195       98919.017       14308.757       4.4780000     -0.82350000     0.092250000       341.43900       2.1893486     0.012186085
       667.00000       288.69961       98910.263       14332.100       2.6042500     -0.31975000      0.57650000       341.55400       2.0981013     0.013414796
       671.99998       288.71368       98906.074       14353.364       3.2712500      -1.2607500      0.31900000       341.61100       1.9342792     0.015033827
       676.99999       288.69989       98910.302       14374.075       3.3257500     -0.97000000     -0.52775000       341.59900       1.8227144     0.017071061
       682.00000       288.69977       98910.273       14384.414       3.1852500      -1.7580000     -0.32400000       341.28800       1.8840363     0.014928463
       686.99998       288.70062       98908.138       14400.991       3.1955000      -1.9847500    -0.097750010       341.54800       1.7957920     0.014680389
       692.99998       288.70098       98912.346       14397.006       3.6895000      -1.2237500      0.24025000       341.35500       1.8157021     0.017073779
       698.00000       288.68996       98918.216       14358.064       4.3745000     -0.33300000     -0.33850000       341.52000       1.8667013     0.015078732
       703.00001       288.70871       98924.101       14365.247       3.8937500      -1.5125000     0.026000000       341.39100       1.8418139     0.014259074
       707.99998       288.75539       98933.649       14393.131       3.3830000    -0.058250000     -0.23725000       341.59600       1.8531172     0.012110834
       713.00000       288.75683       98941.708       14396.031       3.6167500     -0.28675000      0.24450000       341.59800       2.3801765     0.013288734
       718.00001       288.75593       98949.860       14412.598       2.4392500      -1.2957500     -0.58450000       341.82900       2.7055673     0.019117468
       722.99998       288.74718       98954.967       14411.007       3.4907500      -2.2472500     0.053250000       341.28700       2.4167162     0.013424395
       727.99999       288.68812       98962.843       14369.622       2.9140000      -2.1690000    0.0087500000       341.19700       1.8802267     0.013137483
       733.00001       288.69559       98961.434       14377.513       2.9115000      -1.4422500     -0.12725000       341.32800       1.8686442     0.011842287
       737.99998       288.74560       98951.199       14403.719       2.2612500     0.075000000     0.055500000       341.53200       2.4320585     0.013105847
       742.99999       288.76584       98947.128       14440.637       3.6122500     -0.91325000     -0.16475000       341.35200       2.5881460     0.024659660
       748.00001       288.81123       98940.318       14516.207       2.6347500     -0.35300000      0.17450000       341.33600       2.9121560     0.015322955
       752.99998       288.80357       98936.078       14533.271       4.7205000      0.68500010   -0.0035000000       341.32800       3.3824218     0.013886840
       757.99999       288.75282       98937.377       14537.432       3.7500000     -0.53250000      0.70625000       341.64300       3.0057348     0.014477475
       763.00001       288.73266       98931.662       14531.968       4.9685000     -0.25500000     -0.40650000       341.31500       4.0509089     0.017678212
       767.99998       288.69663       98921.583       14488.123       5.3510000     -0.39900000      0.41975000       341.55300       5.0364727     0.017678974
       772.99999       288.68538       98914.603       14466.668       4.0190000     -0.80150000      0.35650000       341.60900       3.1151625     0.018175359
       778.00000       288.71807       98904.267       14468.019       4.7115000     -0.87500010     -0.13725000       341.05300       2.1430957     0.019559560
       784.00001       288.67069       98901.846       14412.883       3.8440000      -1.0197500     0.062250000       341.25000       1.8763641     0.014571987
       788.99999       288.60171       98904.780       14347.893       5.8760000     -0.89975010     -0.17300000       341.41300       1.8329810     0.013579424
       794.00000       288.56110       98905.995       14273.576       3.9507500      -1.3455000     -0.41175000       341.33000       1.8858471     0.012564351
       799.00001       288.48782       98909.483       14170.080       3.5340000     -0.90600000     0.099000010       341.60800       1.8765092     0.013800719
       803.99998       288.51462       98914.783       14089.411       4.8770000      0.13275000      0.83250000       341.64600       1.8339685     0.014803430
       809.00000       288.50593       98919.661       14019.783       2.9540000     -0.27300000      0.31650000       341.43400       1.8689293     0.014104965
       814.00001       288.45469       98930.430       13927.763       4.1310000     -0.46350000      0.27700000       341.53300       2.2417250     0.015555873
       818.99998       288.44346       98936.634       13896.415       3.0387500     -0.24050000     -0.34900000       341.42400       2.1971919     0.011722811
       824.00000       288.44453       98940.367       13901.000       4.5672500       1.9005000     -0.49625000       341.16500       2.4220371     0.014154835
       829.00001       288.43648       98941.098       13931.503       2.5222500     -0.19925000      0.32000000       341.63900       3.3240543     0.016105604
       833.99998       288.46962       98941.997       13995.656       3.7227500      -2.0540000     -0.37200000       341.17800       3.5973243     0.014323411
       839.00000       288.56231       98939.169       14130.750       4.1050000     -0.25350000      0.14450000       341.29700       3.0650837     0.012735497
       844.00001       288.55489       98949.465       14189.710       3.1560000      0.28000000       1.5927500       341.52100       2.2691276     0.016710579
       848.99998       288.55622       98951.836       14247.489       2.5067500     -0.49575000      0.48875000       341.52000       3.6213463     0.014917309
       853.99999       288.51463       98951.265       14297.020       3.6982500     -0.15300000      0.10000000       341.42400       3.4443489     0.017616854
       859.00001       288.49378       98951.464       14319.520       4.4100000      -1.8265000     -0.46950000       341.28500       5.5625956     0.016492549
       863.99998       288.51471       98944.863       14349.811       3.6600000    -0.020500000     -0.54800000       341.31200       2.8316758     0.016780760
       868.99999       288.50587       98939.795       14339.235       4.0745000     -0.32850000      0.10900000       341.24900       1.9721268     0.019904758
       875.00000       288.46702       98939.986       14248.454       5.9375000     0.064000000     -0.60600000       341.29700       1.9726623     0.015186110
       879.99997       288.44703       98935.733       14186.677       3.6800000       1.0850000      0.16725000       341.33100       1.9471151     0.013401522
       884.99999       288.39575       98924.437       14086.776       3.8657500      0.11375000     -0.25825000       341.30600       1.8494456     0.014060188
       890.00000       288.38791       98918.472       14031.538       4.6212500     -0.64200000     -0.30800000       341.25700       1.9785983     0.012660219
       894.99997       288.44851       98913.539       14025.008       3.8455000     0.044500000     -0.71300010       341.20300       2.7696973     0.012697705
       899.99999       288.45762       98908.593       13993.144       4.1147500      0.47225000     -0.59250000       341.28000       3.3173891     0.012840493
       905.00000       288.45608       98905.439       13963.379       3.5435000     -0.64775000     0.043250000       341.32400       2.9268372     0.011869600
       910.00001       288.45478       98904.561       13941.941       4.6115000     -0.12475000     -0.90475000       341.12300       2.2914799     0.013944191
       914.99999       288.40941       98904.725       13902.306       4.9567500      0.71750000     -0.22600000       341.16500       2.3208229     0.014290828
       920.00000       288.39074       98904.927       13882.030       2.9550000     -0.64925000      0.38900000       341.45300       1.9943623     0.012192241
       925.00001       288.40009       98906.534       13896.916       3.0285000      -1.5002500      0.26700000       341.43700       2.2144032     0.017880982
       929.99998       288.40009       98910.745       13892.202       3.1817500     0.034000000      0.19450000       341.54400       2.0934288     0.011193389
       935.00000       288.38604       98915.857       13852.667       4.6840000     -0.13300000     -0.19975000       341.15600       2.2649322     0.015061033
       940.00001       288.39718       98921.007       13864.758       4.5152500     -0.95975010     -0.31275000       341.31500       2.1628016     0.012515698
       944.99998       288.43399       98931.764       13912.111       3.4765000     -0.74675010     -0.37425000       341.29400       1.8775350     0.012178424
       950.00000       288.45363       98937.433       13944.442       5.0690000      -1.2565000      0.29800000       341.30700       1.9112428     0.011159314
       955.00001       288.48982       98939.327       14026.392       4.3537500      -1.3065000      0.65100000       341.46900       1.8855034     0.011000432
       959.99998       288.50825       98941.184       14067.095       4.9642500      -1.8550000      0.21775000       341.39100       1.8276870     0.012546724
       965.99999       288.51365       98940.376       14083.929       4.7600000      -1.5165000     -0.69600000       341.46300       1.8614963     0.012694594
       971.00000       288.49992       98940.395       14072.179       3.3037500     -0.37275000      0.28900000       341.32400       1.7969346     0.013298350
       975.99998       288.44915       98937.762       14015.474       4.5567500     -0.50575000     -0.21250000       341.23900       1.8394661     0.013925506
       980.99999       288.44287       98940.569       13994.615       4.9680000      -2.7492500     -0.78950010       341.38300       1.9108341     0.011263205
       986.00000       288.45665       98948.048       13981.605       5.4012500      -2.0607500     -0.36250000       341.09400       1.7561350     0.013079668
       990.99998       288.44676       98952.073       13945.370       4.4475000      -2.3620000     -0.21150000       341.34700       1.9198276     0.012132021
       995.99999       288.45674       98961.845       13912.795       4.5770000      -2.7522500      0.27050000       341.24100       1.8797617     0.012576307
       1001.0000       288.45298       98962.302       13883.781       4.4367500      -1.8382500     -0.40625000       341.14100       1.8383621     0.013203559
       1006.0000       288.37818       98952.743       13785.552       2.4575000     -0.15575000    -0.028000000       341.47000       1.8593419     0.011841399
       1011.0000       288.38999       98948.727       13786.566       4.3850000      -2.0782500     -0.13875000       341.09400       1.8581731     0.012632334
       1016.0000       288.48902       98942.640       13886.994       3.3252500      -2.3997500     -0.11675000       341.29700       1.8574908     0.011865350
       1021.0000       288.51538       98938.000       13920.872       2.4932500    -0.045500000    -0.013750000       341.45600       1.8538042     0.011602959
       1026.0000       288.56475       98936.285       13985.839       3.0987500     -0.30825000      0.29175000       341.50400       1.8335829     0.012810985
       1031.0000       288.56379       98934.233       14008.498       5.7765000      -1.2497500     -0.44150000       341.30200       1.8226116     0.012646337
       1036.0000       288.45356       98933.452       13939.725       3.0457500      -1.7977500      -1.7680000       341.31300       1.8145974     0.015303241
       1041.0000       288.43146       98929.117       13945.358       2.2737500      -1.3062500      0.32525000       341.59400       1.8612096     0.012009271
       1046.0000       288.45587       98922.732       13999.721       3.6457500      -2.3405000     -0.12625000       341.21800       1.8594057     0.013521657
       1051.0000       288.44596       98918.820       14015.032       3.3140000     -0.25700000      0.33150000       341.30800       1.8292406     0.012729805
       1057.0000       288.44633       98910.332       14040.216       3.9025000      -1.3122500    -0.044500000       341.22200       1.7965155     0.014300537
       1062.0000       288.45623       98907.534       14058.923       4.7352500     -0.81975000     -0.36900000       341.11900       1.8097476     0.014489488
       1067.0000       288.45433       98910.431       14057.045       6.9637500      -2.2500000      0.25025000       341.01100       1.8504742     0.013756415
       1072.0000       288.44415       98910.517       14052.074       5.8697500     -0.91975000    -0.080000010       341.21200       1.8670479     0.013166869
       1077.0000       288.45668       98910.154       14073.144       3.1837500     -0.47550000      0.17025000       341.21500       1.9045694     0.014055889
       1082.0000       288.45063       98910.094       14048.372       3.3422500     -0.42575000     0.091750000       341.20600       1.8389573     0.012807858
       1087.0000       288.41200       98908.030       13985.554       3.7817500      -1.4050000    -0.055500000       341.31800       1.7729464     0.014343191
       1092.0000       288.38225       98911.250       13920.989       2.7865000      0.25025000      0.41925000       341.47800       1.8913165     0.013607505
       1097.0000       288.34788       98917.380       13811.159       2.5902500     -0.77900000     -0.11275000       341.48000       1.8390437     0.011816891
       1102.0000       288.34452       98923.053       13766.334       2.8867500      0.11800000      0.64300000       341.47000       2.3185689     0.013974387
       1107.0000       288.35434       98935.488       13740.562       3.6795000      -1.1820000      0.18825000       341.43600       2.9435772     0.011969244
       1112.0000       288.34421       98938.675       13714.404       4.4580000     -0.77600000     -0.37025000       341.17100       2.3385265     0.016994214
       1117.0000       288.35689       98934.673       13728.989       4.2730000     -0.98375000      0.32125000       341.43000       1.8900195     0.011957850
       1122.0000       288.35074       98935.606       13724.892       4.7092500      -3.2590000       1.5325000       341.21600       1.8802778     0.013441599
       1127.0000       288.28960       98934.696       13680.439       4.7970000      -2.9930000     -0.17550000       341.13800       1.8470081     0.014438801
       1132.0000       288.29234       98935.368       13700.344       3.6970000     -0.48300000      0.35175000       341.45800       1.8610260     0.013272890
       1137.0000       288.34211       98940.204       13766.837       3.5352500      -1.2377500      0.58575000       341.27400       1.8144130     0.011070198
       1143.0000       288.36593       98941.745       13822.690       2.6795000      -2.0552500    -0.025500000       341.46200       1.8247559     0.012064421
       1148.0000       288.40219       98938.440       13900.694       3.5707500     -0.59425000      0.84300010       341.38500       1.8081585     0.013518525
       1153.0000       288.41291       98942.301       13942.685       3.9415000      -2.0712500      0.10775000       341.19900       1.8550382     0.011230834
       1158.0000       288.39123       98951.325       13954.964       3.1530000      -1.3347500     -0.39400000       341.37200       1.7441999     0.014285149
       1163.0000       288.41016       98951.634       13998.017       2.8745000      -1.3022500      0.17125000       341.48500       1.9090917     0.012381665
       1168.0000       288.45558       98949.787       14064.709       2.2960000      -1.5647500     0.038000000       341.52600       1.8474377     0.014358864
       1173.0000       288.45696       98951.776       14075.743       3.5037500      -1.6760000      0.87800000       341.37300       1.7959397     0.014264518
       1178.0000       288.45702       98950.815       14074.537       2.4102500      -1.2602500      0.66800000       341.53500       1.8590712     0.014402706
       1183.0000       288.44834       98948.859       14067.326       4.1877500      -1.1237500      0.52725010       341.23900       1.7916132     0.015563239
       1188.0000       288.39756       98950.074       14008.883       2.1107500     0.069750000      0.63475000       341.45500       1.9652224     0.015584961
       1193.0000       288.38677       98952.102       13996.761       3.9582500     -0.65350000     -0.77475010       341.28900       1.7999470     0.015942306
       1198.0000       288.39178       98950.781       14002.463       3.1587500     -0.88100000      0.66675000       341.40400       1.8452186     0.013858982
       1203.0000       288.41092       98948.799       14023.641       3.8797500      -2.1482500    -0.066250000       341.45200       1.8279696     0.012057849
       1208.0000       288.44649       98952.473       14059.039       4.7980000      -1.7305000     -0.26950000       341.16100       1.8818834     0.012229193
       1213.0000       288.46642       98948.871       14088.203       3.7445000      -1.6010000     -0.62175010       341.14000       1.8369335     0.013110151
       1218.0000       288.50357       98935.082       14140.926       3.7317500      -1.4260000      0.17225000       341.16700       1.8645373     0.013891826
       1223.0000       288.51482       98930.934       14167.890       3.4080000     -0.38000000      0.11325000       341.30400       1.9196012     0.010018623
       1228.0000       288.50007       98931.934       14174.681       3.5280000     -0.12225000      0.45875000       341.40600       1.8020332     0.014778750
       1234.0000       288.50016       98926.013       14197.200       2.5340000      -1.2842500      0.64375000       341.60200       1.8536680     0.013097492
       1239.0000       288.50090       98920.675       14216.593       2.2020000      -1.8187500     -0.57350000       341.38400       1.8539970     0.013264853
       1244.0000       288.50121       98916.686       14235.736       4.0310000      -1.1697500     0.066500000       341.29200       1.8034274     0.021430244
       1249.0000       288.50016       98909.181       14252.150       2.9485000      -1.6332500     -0.73900000       341.43000       1.9017115     0.014626582
       1254.0000       288.50017       98910.189       14294.418       4.7667500      -1.6547500     -0.49225000       341.20200       1.8304252     0.012994566
       1259.0000       288.50030       98910.130       14313.977       2.9637500      -1.8220000     -0.34450000       341.32500       1.8349701     0.015083723
       1264.0000       288.53031       98910.394       14348.690       3.6315000      -1.4227500     -0.32350000       341.44800       1.8266706     0.012824267
       1269.0000       288.51294       98910.454       14342.127       2.4450000     -0.45275000     -0.18200000       341.40400       1.8693866     0.011496423
       1274.0000       288.47099       98910.513       14305.936       2.6212500      -1.9110000    -0.033250000       341.24300       1.8416207     0.012229574
       1279.0000       288.39498       98910.243       14224.561       3.7260000      -1.6075000     0.064500000       341.28700       1.8235730     0.011377606
       1284.0000       288.37610       98910.243       14184.326       3.9275000      -1.7970000     -0.21450000       341.40900       1.8246704     0.012974354
       1289.0000       288.33797       98910.441       14131.665       3.6815000      -2.0500000     -0.27000000       341.32200       1.8580221     0.013617456
       1294.0000       288.39980       98910.306       14107.715       4.3495000      -1.2482500      0.12050000       341.27200       1.8351784     0.014801828
       1299.0000       288.41253       98910.306       14060.734       4.1247500      -1.1700000      0.14925000       341.25300       1.9314169     0.012695004
       1304.0000       288.35481       98907.379       13937.083       3.9762500      -1.4100000      0.29225000       341.26300       1.8354006     0.014869556
       1309.0000       288.34380       98909.194       13884.119       3.0742500      -1.1617500      0.16100000       341.44500       1.8718322     0.011555656
       1314.0000       288.33013       98916.370       13853.283       2.5497500      -2.5630000     0.047750000       341.26100       1.8036109     0.016714615
       1319.0000       288.33748       98920.376       13852.407       2.6960000     -0.86825000     -0.73050000       341.22700       1.8201757     0.015236765
       1325.0000       288.42368       98928.331       13949.111       2.9317500    -0.090500000     -0.10375000       341.30800       1.8072069     0.011736922
       1330.0000       288.46255       98932.069       14008.415       3.7840000      -1.4232500    -0.073250000       341.30800       1.8243833     0.013500150
       1335.0000       288.47615       98930.404       14052.698       2.2617500      -2.2357500      0.67025010       341.41100       1.8435646     0.013624823
       1340.0000       288.50665       98930.479       14125.554       2.3697500     -0.94125000      0.22475000       341.50800       1.8994997     0.013519034
       1345.0000       288.53490       98928.700       14224.116       3.4875000     -0.53275000     0.063000000       341.33200       1.8044924     0.016275964
       1350.0000       288.55538       98929.703       14297.722       2.8195000      -1.5180000    -0.031250000       341.34000       1.7563345     0.021844306
       1355.0000       288.60458       98933.690       14413.748       3.0342500      -2.1935000      0.16125000       341.56600       1.8811805     0.018492778
       1360.0000       288.61190       98935.684       14461.976       2.2297500      -2.4700000      0.12600000       341.48600       1.8761326     0.013133070
       1365.0000       288.56697       98939.469       14437.958       1.8952500      -2.2722500     -0.30325000       341.45400       1.7752269     0.015170565
       1370.0000       288.54709       98941.379       14428.379       1.2142500      -1.0325000      0.10600000       341.46900       1.8245919     0.014162412
       1375.0000       288.50977       98940.145       14383.602       1.4297500      -1.9975000      0.15225000       341.42800       1.8361772     0.013191555
       1380.0000       288.49079       98940.069       14350.272      0.85150000      -1.7890000    -0.018750000       341.63400       1.8135996     0.013312193
       1385.0000       288.50013       98937.427       14337.019       2.8657500      -1.4652500      0.42250000       341.25300       1.8730769     0.013746207
       1390.0000       288.50025       98939.652       14301.133       3.1605000     -0.44350000      0.87050000       341.42200       1.8139905     0.014095415
       1395.0000       288.51384       98950.066       14245.095       2.4202500      -1.9745000      0.32475000       341.51400       1.7985805     0.015299140
       1400.0000       288.50234       98951.824       14193.534       3.0272500      -2.3950000      0.12050000       341.38300       1.7964317     0.015921457
       1405.0000       288.45209       98948.805       14101.843       2.3372500     -0.47775000      0.71900000       341.57200       1.7916938     0.015679844
       1410.0000       288.44349       98950.841       14066.469       3.3295000      -2.5342500      0.68300000       341.42800       1.7637016     0.014811490
       1416.0000       288.44168       98948.732       14061.610       3.5822500     -0.57700000     -0.75900010       341.38500       1.8645965     0.012941295
       1421.0000       288.44523       98949.490       14069.344       3.0025000      -1.4102500      0.51200000       341.54100       1.8451371     0.015145621
       1426.0000       288.49401       98959.143       14125.866       3.8325000      -1.4675000     -0.27775000       341.28700       1.7746819     0.013493274
       1431.0000       288.51020       98962.399       14161.247       4.1660000      -2.5375000     -0.62650000       341.27400       1.8680973     0.011703369
       1436.0000       288.48694       98960.314       14178.190       2.7225000      0.28900000     -0.36575000       341.53000       1.8190181     0.015044050
       1441.0000       288.50052       98960.354       14224.149       3.0935000     -0.27950000      0.27200000       341.47400       1.7827401     0.019087760
       1446.0000       288.57668       98962.897       14334.828       2.5892500      -1.7912500      0.19200000       341.56400       1.8955030     0.012805290
       1451.0000       288.55540       98960.172       14348.998       2.1625000     -0.98350010      0.65300010       341.60600       1.8110006     0.014501629
       1456.0000       288.47003       98952.804       14338.268       3.2315000      -2.4095000     -0.46725000       341.27800       1.8477638     0.012677528
       1461.0000       288.43981       98948.766       14302.878       5.8400000      -1.2782500     -0.33400000       341.25200       1.8250022     0.013857185
       1466.0000       288.35431       98941.227       14171.727       4.6330000      -1.1187500      0.26925000       341.36800       1.7993027     0.017098356
       1471.0000       288.32551       98937.887       14093.778       2.5987500     -0.91375010      0.44225000       341.50700       1.7864366     0.017008460
       1476.0000       288.40807       98940.314       14056.493       2.7677500      -2.6670000      0.96350000       341.57400       1.8277890     0.013660627
       1481.0000       288.41083       98940.355       13975.989       2.4565000      -2.4747500      0.27575000       341.34200       1.7598589     0.019369137
       1486.0000       288.34892       98940.264       13845.768       1.5997500      -1.3920000      0.42975000       341.54900       1.8218361     0.019303682
       1491.0000       288.34279       98940.223       13780.699       1.7122500      -1.6797500      0.54400000       341.51400       1.8053180     0.015234042
       1496.0000       288.34314       98940.163       13713.484       2.0252500      -3.1020000      0.44300000       341.31800       1.9060062     0.010726098
       1501.0000       288.34681       98940.103       13682.366       3.0342500      -2.4320000     -0.70100000       341.37300       1.8186722     0.013982866
       1507.0000       288.39932       98940.381       13727.951       2.7587500      -1.5607500      0.46800000       341.37900       1.7504695     0.018827190
       1512.0000       288.41297       98940.397       13742.314       2.5200000      -1.0572500     -0.32475000       341.57700       1.8115692     0.013302461
       1517.0000       288.38871       98940.118       13739.807       2.8495000     -0.25550000      0.40500000       341.54300       1.8229956     0.015676222
       1522.0000       288.40495       98940.032       13775.865       3.6735000      -1.1155000     0.077250000       341.46700       1.8322796     0.014672357
       1527.0000       288.44236       98940.321       13839.567       2.9575000      -2.5612500      0.44050000       341.41600       1.9446614     0.015133124
       1532.0000       288.46230       98940.364       13888.726       3.7917500      -1.9307500     -0.35625000       341.39600       1.8212793     0.015016375
       1537.0000       288.51019       98941.383       13982.643       2.1092500     -0.84725000      0.33650000       341.56100       1.7962890     0.016129537
       1542.0000       288.50753       98939.758       14001.825       2.4560000     -0.67450000      0.25500000       341.31700       1.8341950     0.017961135
       1547.0000       288.44719       98935.084       13958.727       4.1200000      0.18900000    -0.084750000       341.15900       1.7959504     0.016402501
       1552.0000       288.44360       98934.763       13961.677       4.3490000      -2.4055000      -1.2070000       341.39500       1.8237312     0.013652386
       1557.0000       288.43233       98935.883       13939.087       2.8537500      -1.3967500     -0.74750010       341.39200       1.7911463     0.014876907
       1562.0000       288.45517       98934.962       13951.543       3.9862500     -0.48125000      0.12050000       341.22200       1.8183705     0.014122893
       1567.0000       288.55430       98936.191       14036.543       4.1662500      -1.3090000     -0.72250000       341.31700       1.8283978     0.016757848
       1572.0000       288.57219       98935.621       14036.835       4.2130000     -0.96000000     -0.35350000       341.43900       1.8296805     0.012822851
       1577.0000       288.55762       98930.407       13990.645       4.3980000      -2.5762500     -0.60825000       341.53500       1.8121246     0.013223681
       1582.0000       288.55153       98929.079       13969.533       5.0140000      -2.3277500     -0.31950000       341.15700       1.7320069     0.020583933
       1587.0000       288.50035       98932.505       13911.236       5.2447500     -0.92275010     -0.26975000       341.16900       1.8357207     0.018254036
       1592.0000       288.48628       98929.246       13885.685       4.4682500      -1.4302500     -0.92825000       341.21200       1.8483304     0.013382323
       1598.0000       288.50028       98919.404       13897.285       4.5237500      -1.7272500      0.40650000       341.41500       1.8399262     0.013994700
       1603.0000       288.50046       98919.148       13879.859       3.9517500      -1.2040000      0.15525000       341.33700       1.8363628     0.013167447
       1608.0000       288.50882       98920.759       13855.431       3.9310000     -0.76225010      0.64900000       341.36900       1.8690843     0.012305275
       1613.0000       288.49008       98918.744       13820.369       3.4927500      0.61325000     -0.16450000       341.48300       1.8609171     0.014918366
       1618.0000       288.44481       98921.669       13754.274       3.2675000      -1.3712500     -0.13875000       341.36700       1.7975447     0.017514058
       1623.0000       288.44348       98919.957       13750.241       5.7130000      -3.1037500     -0.32375000       341.20200       1.7951018     0.016459446
       1628.0000       288.44252       98910.522       13763.603       6.0617500      -1.5027500     -0.64250000       341.19800       1.8086533     0.013416830
       1633.0000       288.45090       98906.406       13780.186       4.2260000     -0.87425010     0.025500000       341.30600       1.8291442     0.011610613
       1638.0000       288.50270       98904.698       13844.478       3.4300000     -0.75275000      0.12200000       341.39800       1.8382460     0.013871252
       1643.0000       288.51350       98904.521       13872.277       4.1975000      -1.1827500     -0.61150000       341.52400       1.8187186     0.012855751
       1648.0000       288.50027       98905.493       13881.629       4.2045000     -0.85900000     -0.48575000       341.23100       1.8551036     0.015103274
       1653.0000       288.50046       98904.486       13894.900       4.0765000      -1.1440000     -0.11450000       341.41900       1.8381883     0.015932278
       1658.0000       288.50853       98905.054       13924.697       3.0767500      -1.3870000      0.52550000       341.70100       1.8607699     0.014106916
       1663.0000       288.48970       98906.049       13903.492       3.7957500     -0.53500000     0.090750000       341.38700       1.8253415     0.014408366
       1668.0000       288.44479       98904.564       13838.596       2.2642500     -0.71300010      0.10250000       341.49000       1.8222377     0.016193736
       1673.0000       288.44349       98905.423       13819.815       2.9560000      -1.9032500     0.085250010       341.64300       1.7497657     0.023420822
       1678.0000       288.44251       98911.467       13788.348       3.9910000      -1.8500000     -0.39900000       341.46200       1.7851182     0.016630868
       1683.0000       288.45079       98910.736       13775.927       5.4795000      -1.0022500     -0.14325000       341.26900       1.9293079     0.017838191
       1689.0000       288.50576       98904.568       13809.696       6.5260000      -3.1522500     -0.17450000       341.31800       1.8681534     0.012167148
       1694.0000       288.51413       98904.628       13791.151       4.3925000      0.19200000      0.43500000       341.32000       1.8076791     0.015893104
       1699.0000       288.50031       98904.771       13744.332       4.3335000     -0.92225000       1.0437500       341.48200       1.8456170     0.011371263
       1704.0000       288.48527       98908.768       13702.930       4.0950000     -0.69500010     -0.29025000       341.25400       1.8905864     0.010058953
       1709.0000       288.49381       98910.912       13704.466       3.3355000      -2.5627500      0.23450000       341.55400       1.8386706     0.013447931
       1714.0000       288.54514       98911.769       13784.995       3.9455000      -1.2765000       1.0917500       341.70700       1.8010668     0.018533715
       1719.0000       288.55623       98910.901       13814.919       5.0600000      -3.5155000     -0.23500000       341.32100       1.8210682     0.013612635
       1724.0000       288.55497       98908.797       13833.934       4.8202500     -0.37650000     -0.47050000       341.54000       1.8681459     0.011768696
       1729.0000       288.55075       98904.564       13852.455       4.5332500     -0.52700000     -0.11475000       341.45800       1.8943013     0.012628713
       1734.0000       288.56063       98904.633       13898.746       6.0842500      -1.0877500     -0.13825000       341.27000       1.8234801     0.013852820
       1739.0000       288.54434       98905.292       13922.290       4.5160000      -1.2552500      0.75325010       341.32800       1.7975708     0.016108926
       1744.0000       288.60031       98904.269       14032.994       3.9665000     -0.91050000     -0.57100000       341.37500       1.8971043     0.011150484
       1749.0000       288.61340       98905.252       14078.090       4.8422500    -0.096250010     -0.64975010       341.28000       1.8501451     0.012438140
       1754.0000       288.55482       98904.766       14024.747       4.4425000      -1.1040000      0.43150000       341.36600       1.8004754     0.014086124
       1759.0000       288.54383       98904.637       14017.143       3.0482500     -0.64000000      0.22200000       341.44900       2.2147682     0.011758070
       1764.0000       288.54513       98910.272       14005.022       2.2365000     -0.29250000      0.40275000       341.59800       2.0415461     0.019588627
       1769.0000       288.54386       98911.519       13994.663       3.4820000     -0.43400000      0.16975000       341.45800       1.9792657     0.016072913
       1775.0000       288.59002       98905.410       14024.211       4.4675000      -2.3862500      0.42050000       341.54700       2.1944365     0.018065549
       1780.0000       288.60864       98904.481       14034.289       6.5980010     -0.74050000    -0.060250000       341.38600       2.4134556     0.013252497
       1785.0000       288.58598       98897.750       14006.966       3.7427500     -0.98250010      0.47800000       341.52600       2.9112991     0.015652016
       1790.0000       288.59737       98903.558       14015.135       4.2630000      0.75250010      0.30550000       341.46300       2.7672513     0.011523252
       1795.0000       288.64851       98933.548       14065.919       5.4877500      0.16325000     -0.28625000       341.33600       2.3010728     0.012692237
       1800.0000       288.65751       98939.996       14076.937       3.0342500      -1.2110000      0.60050000       341.67200       1.8631680     0.013014929
       1805.0000       288.65621       98939.955       14079.665       4.0995000      -1.1877500      0.16925000       341.47800       1.9441003     0.010253017
       1810.0000       288.65491       98938.220       14084.173       2.8432500      -1.4382500      0.56700000       341.53700       1.8480971     0.011459022
       1815.0000       288.61011       98910.336       14038.811       2.6860000      -1.4282500      0.26550000       341.62900       1.8430303     0.013544735
       1820.0000       288.59174       98900.223       14037.568       4.9015000      -1.1117500      0.24475000       341.47900       1.7843264     0.016581389
       1825.0000       288.61425       98904.696       14095.648       4.9337500      0.77850000      0.30050000       341.18900       1.7920828     0.014962350
       1830.0000       288.60297       98904.819       14109.120       5.3280000      -2.5670000     -0.89925000       341.29800       1.8830519     0.015034945
       1835.0000       288.56517       98909.320       14122.410       4.8510000      -1.2867500      0.68300000       341.48800       1.8134955     0.013819951
       1840.0000       288.54499       98911.212       14116.374       2.5140000      -2.2817500      0.71425000       341.46600       1.8219614     0.014148474
       1845.0000       288.50959       98910.407       14065.197       3.9105000      -1.7552500      0.63275000       341.55200       1.8297113     0.015714047
       1850.0000       288.49121       98910.466       14029.145       3.3850000      -1.0745000      0.39275000       341.53500       1.8640642     0.011896028
       1855.0000       288.48588       98910.371       13980.109       2.6125000      -1.1320000      0.64025000       341.63700       1.8071353     0.016105161
       1860.0000       288.49707       98910.410       13954.334       3.1445000     -0.78325000     -0.42800000       341.37700       1.8378346     0.012807970
       1866.0000       288.53775       98910.488       13948.439       4.0460000     -0.92550000       1.3065000       341.58000       1.8524063     0.012867187
       1871.0000       288.55804       98910.588       13930.400       3.1572500      -1.6477500      0.16975000       341.46000       1.8290260     0.015147572
       1876.0000       288.60755       98911.615       13928.656       3.3552500      0.54000000      0.64925000       341.46800       1.8620257     0.015232526
       1881.0000       288.61031       98910.264       13904.719       2.9277500      -1.5785000     0.019000000       341.46500       1.8185672     0.012347233
       1886.0000       288.54864       98905.146       13823.582       4.0317500      -1.7140000     -0.26600000       341.38200       1.8196386     0.013303346
       1891.0000       288.54206       98904.486       13813.154       3.4287500      -1.0950000     -0.17750000       341.50600       1.8001048     0.014066733
       1896.0000       288.52988       98905.895       13826.152       4.3585000      0.35650000     -0.31025000       341.39000       1.8582167     0.013695314
       1901.0000       288.54713       98904.888       13857.607       4.1220000     -0.78350000    -0.028500000       341.37400       1.8409146     0.013669124
       1906.0000       288.63312       98904.804       13952.033       2.1230000     -0.48725000     -0.35725000       341.41400       1.8469185     0.012591351
       1911.0000       288.66953       98905.852       14019.086       3.0372500     -0.60500000      0.44125000       341.50800       1.8720014     0.016147188
       1916.0000       288.69498       98904.618       14093.521       3.7020000      -1.3170000   -0.0017500000       341.37700       1.8242257     0.013734945
       1921.0000       288.71150       98904.997       14145.559       2.9935000     -0.48550000     0.089750010       341.65100       1.8464254     0.012711945
       1926.0000       288.71255       98911.082       14212.725       3.9285000      -1.6172500     0.021500000       341.48900       1.8872132     0.012274372
       1931.0000       288.69875       98911.336       14218.376       3.5130000      -2.1647500    -0.077000010       341.44500       1.7898708     0.015075889
       1936.0000       288.67492       98906.550       14175.029       2.8772500      -1.2772500    0.0020000000       341.67600       1.8227637     0.015166676
       1941.0000       288.64143       98904.594       14128.261       1.7735000      -1.1477500    -0.040250000       341.74000       1.8098696     0.013805729
       1946.0000       288.55415       98899.656       14011.974       2.1625000      -1.6480000     -0.29500000       341.59000       1.8405579     0.014831138
       1951.0000       288.53166       98899.457       13954.136       2.4265000      -2.0907500      0.18450000       341.53900       1.7764441     0.018874810
       1957.0000       288.54273       98905.721       13919.480       3.5015000     -0.41675000     -0.85700010       341.52200       1.7981097     0.016346279
       1962.0000       288.54954       98906.156       13875.293       2.2947500      -1.5230000     -0.18925000       341.65400       1.8190805     0.013446507
       1967.0000       288.59860       98905.873       13836.112       2.2427500    -0.088500000     -0.10050000       341.50400       1.7832110     0.016826454
       1972.0000       288.61251       98905.245       13810.822       3.8070000     -0.32475000     -0.26000000       341.58900       1.7742030     0.014308770
       1977.0000       288.59975       98900.293       13764.697       2.9672500      -1.0832500     0.085250010       341.55200       1.7637642     0.015824887
       1982.0000       288.59968       98898.882       13762.402       4.6197500      -1.6675000     -0.48050000       341.31000       1.8104698     0.012820765
       1987.0000       288.60028       98900.541       13809.555       3.2502500     -0.98225000      0.19825000       341.72600       1.9337429     0.010978997
       1992.0000       288.60040       98900.644       13832.495       5.3095000     -0.91375010     -0.29875000       341.31700       1.8391722     0.013500024
       1997.0000       288.59998       98899.046       13862.082       4.2505000      -1.9042500     -0.14850000       341.42500       1.8491528     0.011735130
       2002.0000       288.59998       98900.664       13891.142       4.0275000      -1.5675000     -0.24000000       341.45300       1.8380767     0.014561527
       2007.0000       288.58880       98904.387       13909.904       3.5925000      -1.7737500    -0.059000000       341.72300       1.7689262     0.014446669
       2012.0000       288.60514       98906.359       13947.107       5.6842500      -2.6975000     0.041250000       341.26700       1.8207172     0.013734066
       2017.0000       288.64266       98911.272       14014.180       4.4437500      -1.5832500      0.23775000       341.55400       1.8733124     0.017264134
       2022.0000       288.66259       98911.021       14040.306       2.3942500      -2.5255000      0.27525000       341.71600       1.8787003     0.014516722
       2027.0000       288.69942       98904.933       14058.012       3.5597500      -1.1182500     0.040500000       341.38700       1.8334185     0.019303375
       2032.0000       288.71284       98904.554       14065.534       2.8222500      -1.6040000     0.034750000       341.58600       1.8099076     0.013031057
       2037.0000       288.68889       98905.825       14031.609       3.1112500      -1.2897500     -0.21325000       341.37100       1.8350079     0.014332672
       2042.0000       288.70502       98904.877       14035.541       1.8987500     -0.60800000      0.16225000       341.73200       1.8165238     0.012898759
       2048.0000       288.74490       98905.175       14063.554       2.6912500      -1.2060000      0.45150000       341.89900       1.8208889     0.014344099
       2053.0000       288.76515       98906.195       14070.994       2.2072500      -1.4800000     0.040250000       341.63400       1.8258101     0.016571890
       2058.0000       288.79422       98904.790       14074.077       3.6037500      -2.1210000     -0.20475000       341.75800       1.8703359     0.015044103
       2063.0000       288.82466       98905.708       14100.859       3.2332500     -0.99100010      0.19000000       341.70400       1.8713279     0.012001291
       2068.0000       288.83799       98910.757       14117.451       3.1932500     -0.84475000     -0.31350000       341.51000       1.8483558     0.013791198
       2073.0000       288.87683       98911.959       14172.058       2.9450000      -1.5140000    -0.047500000       341.42900       1.8177153     0.012469861
       2078.0000       288.96680       98910.442       14302.245       3.0072500      -1.4977500      0.44800000       341.80400       1.8244723     0.016176670
       2083.0000       288.96061       98910.501       14308.559       1.9847500      -1.4665000      0.10875000       341.81700       1.8631957     0.013859779
       2088.0000       288.91254       98910.472       14280.086       3.0272500      -1.7292500     -0.23300000       341.32100       1.9765002     0.012586084
       2093.0000       288.88315       98910.531       14239.394       2.0900000      -1.3102500      0.16950000       341.80600       1.8449972     0.017660402
       2098.0000       288.79460       98910.220       14111.420       2.6737500      -1.3612500     -0.21450000       341.63200       1.8050141     0.016604623
       2103.0000       288.77199       98910.174       14061.234       2.8582500      -1.1580000     -0.12350000       341.61200       1.8292830     0.014176158
       2108.0000       288.80931       98908.514       14057.884       2.6807500    -0.046250000      0.21475000       341.89000       1.7934945     0.015403274
       2113.0000       288.79090       98912.294       14010.726       3.5770000      -1.0155000     0.097250010       341.50400       1.8132667     0.013829353
       2118.0000       288.73638       98921.254       13933.889       2.2962500      -1.4230000     -0.13825000       342.07300       1.8342851     0.015549583
       2123.0000       288.75387       98921.431       13925.732       2.2465000     -0.97125010      0.49300000       341.93400       2.1633909     0.013138817
       2128.0000       288.78894       98921.686       13924.911       2.1632500      -1.3762500      0.56425010       342.16300       1.8093924     0.016357782
       2133.0000       288.81732       98919.994       13950.911       2.0777500      -1.7140000    -0.058750000       341.77900       1.7940012     0.014406964
       2139.0000       288.93221       98907.466       14078.363       3.6505000      -1.1842500      0.35825000       341.77900       1.8298368     0.016195896
       2144.0000       288.88498       98909.935       14050.735       2.9802500      -1.6737500      0.32375000       341.78700       1.8723444     0.013313827
       2149.0000       288.74434       98920.299       13969.133       3.3967500      0.94975010     -0.35025000       341.55200       1.8463620     0.014884953
       2154.0000       288.66090       98925.895       13841.428       4.7460000      -2.3137500     -0.20400000       341.49800       1.7971445     0.016364133
       2159.0000       288.62503       98931.131       13782.770       2.8302500     -0.81800000      0.43175000       341.25700       1.7864402     0.014702486
       2164.0000       288.73008       98934.850       13824.819       4.4850000     -0.42250000     -0.65300010       341.29100       1.8246539     0.013162018
       2169.0000       288.76199       98935.961       13822.355       3.2252500     0.097000000      0.52975000       341.80300       1.8179153     0.013716080
       2174.0000       288.76927       98935.822       13816.031       5.2375000     -0.18825000      0.49900000       341.36000       1.8042697     0.013402601
       2179.0000       288.75035       98935.420       13821.188       4.3062500      -1.3725000     -0.50475000       341.44200       1.7847703     0.016418784
       2184.0000       288.76012       98936.437       13829.811       3.1152500     -0.26250000     -0.10775000       341.75500       1.8224071     0.014990089
       2189.0000       288.74427       98935.511       13813.570       3.9807500     -0.46175000     -0.60525000       341.58900       1.7624836     0.022021283
       2194.0000       288.81511       98934.296       13874.541       3.5720000      -1.2580000      0.27000000       341.60300       1.8500360     0.015023225
       2199.0000       288.81938       98935.304       13895.324       3.4142500     -0.93275000      0.40125000       341.92600       1.8069421     0.017856639
       2204.0000       288.72421       98931.808       13863.094       5.6022500     -0.24075000    -0.025750000       341.61300       1.8465231     0.014733210
       2209.0000       288.69318       98933.482       13864.445       4.8695000      -1.1877500      0.39900000       341.78600       1.7982108     0.018640104
       2214.0000       288.66012       98947.864       13876.801       4.1812500     -0.47725000      0.42675000       341.47800       1.8505180     0.016143577
       2219.0000       288.63773       98952.258       13874.427       3.5895000     -0.98950000      0.40725000       341.84000       2.0570009     0.014320230
       2224.0000       288.63997       98952.958       13874.559       4.4505000      -1.4275000      0.13200000       341.71900       2.9643712     0.017953190
       2230.0000       288.71609       98951.273       13908.434       4.8117500      -2.3585000      0.39900000       341.53200       3.1944133     0.014722440
       2235.0000       288.60395       98942.232       13763.967       4.6817500      -1.8470000     -0.24375000       341.37400       3.6536344     0.017632997
       2240.0000       288.58638       98938.378       13721.766       4.0140000     -0.77350000      0.26900000       341.76700       2.1897275     0.015115022
       2245.0000       288.58854       98937.420       13695.233       3.5180000      -1.2512500      0.33650000       341.84100       2.0343172     0.015184466
       2250.0000       288.59079       98939.624       13679.369       3.0702500    -0.016250000     -0.39300000       341.64300       1.9768375     0.011124679
       2255.0000       288.68061       98950.042       13750.550       5.1482500     -0.46450000     -0.13125000       341.31800       2.0057115     0.013487217
       2260.0000       288.71755       98951.820       13786.107       3.9300000      -1.3927500     -0.19475000       341.36600       1.8959682     0.012701056
       2265.0000       288.71445       98951.601       13791.541       4.2660000      0.42950000     -0.29350000       341.42600       1.8517468     0.012530897
       2270.0000       288.70287       98951.260       13802.691       4.1080000     -0.47025000      0.22400000       341.58200       2.6731247     0.015909068
       2275.0000       288.66632       98939.458       13828.455       3.4920000      0.42900000     -0.48900000       341.50700       3.1414917     0.015786976
       2280.0000       288.64642       98937.965       13837.372       4.4302500      -2.1947500       1.0745000       341.55300       2.5782188     0.015744916
       2285.0000       288.60980       98947.266       13822.184       4.6425000     -0.42525000     -0.18375000       341.53400       2.4208354     0.016547748
       2290.0000       288.59094       98951.307       13820.266       5.9792500      0.82950000    -0.060250000       341.40300       2.1121234     0.010517523
       2295.0000       288.60004       98961.192       13818.714       4.1585000     -0.44475000     -0.55800000       341.58200       1.9327455     0.013711721
       2300.0000       288.60000       98962.597       13818.728       3.4182500    -0.051000000     -0.45075000       341.69500       1.9134196     0.015082614
       2305.0000       288.60022       98953.670       13833.622       4.8542500      -1.3855000      0.59575000       341.57800       1.8909328     0.011528788
       2310.0000       288.60019       98949.759       13833.497       4.6845000     -0.73500000     -0.54200010       341.18400       1.8537696     0.012501570
       2316.0000       288.59998       98938.664       13816.157       7.1592500      -1.5417500     0.010500000       341.30200       1.9104895     0.010081222
       2321.0000       288.59998       98938.195       13811.435       3.6845000       1.4880000      0.13175000       341.58800       2.3078557     0.011566072
       2326.0000       288.58725       98950.505       13793.788       4.8092500      -1.1147500     -0.45425000       341.33300       2.6922132     0.015052668
       2331.0000       288.60115       98951.809       13801.223       5.9985000      -1.0110000    -0.070000000       341.44000       3.4148877     0.016567900
       2336.0000       288.65134       98951.615       13855.069       3.8320000      -1.4847500      0.50625000       341.63300       2.1855009     0.014551441
       2341.0000       288.65772       98950.885       13855.297       6.2332500     -0.72475000     -0.57475000       341.19300       1.8912928     0.017214264
       2346.0000       288.65715       98941.184       13831.294       5.3185000     -0.57475000     -0.82050000       341.29800       1.8936393     0.012976310
       2351.0000       288.65346       98937.942       13820.728       4.5052500     -0.86125000      0.93125000       341.53400       1.9770877     0.012509501
       2356.0000       288.60447       98941.673       13764.032       3.7710000      0.38950000      0.20325000       341.41500       1.9130955     0.013913499
       2361.0000       288.58823       98940.286       13755.129       4.2862500      0.70425000      0.27550000       341.53900       2.0570966     0.013873156
       2366.0000       288.61308       98936.628       13818.595       4.4322500      -1.0827500      0.18025000       341.60300       2.0594934     0.011914328
       2371.0000       288.59944       98934.673       13810.404       4.3472500     -0.82750000     -0.38325000       341.57200       1.9395367     0.011298957
       2376.0000       288.56111       98930.578       13769.863       3.2035000     -0.93475000      0.47875000       341.27900       1.8628691     0.012026805
       2381.0000       288.54099       98928.902       13743.903       3.9192500      -1.4167500     -0.16325000       341.40000       1.8687530     0.010077545
       2386.0000       288.50472       98934.279       13671.250       4.3240000      -1.1925000      0.44425000       341.32900       1.8583439     0.013892597
       2391.0000       288.48871       98930.203       13642.398       3.4245000     -0.66350000     -0.82875000       341.39700       1.9240576     0.014043175
       2396.0000       288.51281       98913.687       13662.938       3.9652500      -1.3332500    -0.056000000       341.56900       1.8240914     0.013656843
       2401.0000       288.49920       98913.149       13652.888       2.6575000     -0.42100000      0.51325010       341.56200       1.8301643     0.011774763
       2407.0000       288.44709       98920.421       13622.262       3.0612500      -1.2060000      0.15375000       341.71000       1.8096320     0.014255512
       2412.0000       288.44329       98919.466       13626.284       3.9095000      -2.3092500     0.064000000       341.51500       1.8142348     0.015539669
       2417.0000       288.43225       98927.380       13623.001       4.4067500      -3.0710000     -0.22450000       341.23900       1.8676349     0.012876108
       2422.0000       288.45489       98927.010       13657.044       5.7682500      -1.7785000     -0.16975000       341.30200       1.8538639     0.013460258
       2427.0000       288.55335       98910.343       13760.923       5.1185000     -0.42450000     -0.15400000       341.46300       1.8327919     0.012251584
       2432.0000       288.57132       98906.124       13791.503       5.4802500      -1.5222500     -0.30050000       341.23600       1.8862837     0.012781597
       2437.0000       288.55713       98910.385       13802.844       6.1290000      -1.0550000      0.14925000       341.41200       1.8869778     0.010670489
       2442.0000       288.55091       98910.429       13811.225       4.9682500      -1.3812500       1.4265000       341.45500       1.8869404     0.012404038
       2447.0000       288.48914       98910.508       13762.143       5.3662500      -2.3220000     -0.96175000       341.12300       1.8196758     0.013773939
       2452.0000       288.49206       98910.611       13770.854       5.1412500      0.22350000    -0.050250000       341.46900       1.8555213     0.011430264
       2457.0000       288.55356       98911.434       13832.425       4.4140000     -0.97825000      0.25100000       341.51200       1.9347789     0.015723202
       2462.0000       288.55740       98909.832       13835.651       2.8897500     -0.47950000       1.2835000       341.40000       1.8981627     0.010929778
       2467.0000       288.54598       98905.860       13816.806       3.1110000      -1.5652500       1.5845000       341.53500       1.8558042     0.013122518
       2472.0000       288.55610       98903.797       13822.542       3.9157500     -0.37400000     -0.20625000       341.44200       1.8345083     0.012420308
       2477.0000       288.53145       98900.393       13794.238       4.0350000     -0.74425010     -0.85300000       341.47100       1.8886408     0.011596311
       2482.0000       288.55381       98899.050       13812.057       4.3892500     -0.10525000      0.16900000       341.56400       1.8636517     0.012996282
       2487.0000       288.64078       98900.168       13882.319       5.0872500     -0.85150000     -0.43775000       341.19200       1.8521389     0.010962520
       2492.0000       288.67418       98900.152       13927.192       1.9537500     -0.26100000      0.94975010       341.65900       1.8732149     0.011290481
       2498.0000       288.70337       98900.077       13982.068       3.9675000      0.16275000     0.075000000       341.23700       1.8579000     0.012517247
       2503.0000       288.71462       98900.018       14028.289       2.6085000     -0.35450000      0.89675000       341.59000       1.8388905     0.012969105
       2508.0000       288.70067       98900.250       14081.610       6.5842500    -0.064250000      0.59850000       341.41300       1.8910636     0.011010761
       2513.0000       288.70097       98900.283       14114.248       4.1352500     -0.73750000      0.23950000       341.55600       1.9060498    0.0095525475
       2518.0000       288.71797       98900.360       14159.666       4.6555000      -1.3397500     -0.55550000       341.37100       1.7994408     0.015039108
       2523.0000       288.68075       98900.405       14136.163       3.9045000      -2.3610000     -0.19875000       341.47500       1.8873615     0.010627957
       2528.0000       288.59879       98900.393       14055.780       4.0877500    -0.039000000      0.26950000       341.66400       1.9172504     0.012004312
       2533.0000       288.57761       98900.440       14017.909       5.6580000     -0.45625000      0.29000000       341.36600       1.8743272     0.011119851
       2538.0000       288.53984       98899.720       13953.768       5.0785000      -1.2927500     -0.22450000       341.34800       1.8569004     0.013991065
       2543.0000       288.53825       98901.755       13907.446       4.9970000     -0.99475000     -0.18175000       341.43200       1.9125874     0.012860614
       2548.0000       288.60252       98904.938       13899.991       5.0032500      0.55600010      0.88425000       341.71200       1.8313790     0.014596083
       2553.0000       288.61383       98906.986       13846.295       4.7287500     -0.59775000     -0.22450000       341.62900       1.8666405     0.014535285
       2558.0000       288.59973       98908.745       13741.910       3.3592500      -2.4060000     0.088500000       341.80400       1.8642934     0.013650079
       2563.0000       288.59968       98913.597       13704.386       5.7155000      -1.6337500     -0.72650000       341.35300       1.8678576     0.012583059
       2568.0000       288.59095       98919.749       13673.259       4.2722500      -1.3115000     -0.17975000       341.45400       1.8681871     0.012784668
       2573.0000       288.60956       98923.779       13683.718       4.3962500      -1.3912500      0.74800000       341.34500       1.8798632     0.012382193
       2578.0000       288.64576       98931.016       13749.240       4.5312500      -1.0342500     0.042250000       341.47600       1.9005373     0.011948728
       2583.0000       288.66555       98933.341       13787.915       5.7012500     -0.26250000    -0.070000000       341.45100       1.8962082     0.012402410
       2589.0000       288.69957       98930.400       13839.207       3.6582500      -1.3645000     -0.61350010       341.66300       1.8542402     0.015045454
       2594.0000       288.72966       98930.449       13918.348       3.0692500     -0.12125000      0.13025000       341.48800       1.9076586     0.011814332
       2599.0000       288.75563       98929.600       14023.291       3.5500000      -1.2757500     -0.43225000       341.36000       1.8999008     0.012089138
       2604.0000       288.75426       98933.239       14084.787       3.3435000     -0.32900000      -1.0565000       341.45100       1.8563105     0.012198416
       2609.0000       288.75551       98935.244       14123.593       4.9242500     -0.64575000     -0.79825000       341.48400       1.8842404     0.010815629
       2614.0000       288.69988       98940.412       14066.180       6.0542500     -0.39850000    0.0082500000       341.34500       1.8484380     0.012845980
       2619.0000       288.68764       98941.698       14051.828       5.2305000     -0.50900000      0.15250000       341.42500       1.9296998     0.011318960
       2624.0000       288.70004       98940.512       14053.578       3.0455000     -0.73475000      0.43550000       341.60800       1.8728120     0.010758962
       2629.0000       288.75542       98935.317       14083.986       3.7052500     -0.58775000   0.00025000000       341.25300       1.8744010     0.011463775
       2634.0000       288.75401       98933.273       14069.965       2.4735000      -1.1745000      0.66225000       341.58300       1.8899490    0.0098997630
       2639.0000       288.75664       98929.673       14060.080       2.9820000     -0.23825000      0.44950000       341.70700       1.8602235     0.011506678
       2644.0000       288.69978       98930.333       13971.592       2.8352500      -1.6762500     -0.11175000       341.50900       1.8623106     0.012805337
       2649.0000       288.68683       98930.368       13944.192       1.9632500     -0.78975000     -0.54725000       341.68800       1.8538529     0.011158022
       2654.0000       288.73052       98933.443       13967.160       1.5735000     -0.75350000      0.38600000       341.81100       1.8203320     0.015070135
       2659.0000       288.75042       98931.758       13980.621       3.2740000     -0.77100000     -0.29350000       341.57800       1.8279106     0.012635129
       2664.0000       288.78505       98924.361       14038.562       2.8087500     -0.50825000      0.16325000       341.62100       1.8350923     0.014679587
       2669.0000       288.80607       98920.415       14076.659       2.9942500      -1.4150000      0.11350000       341.59500       1.8135106     0.015448518
       2674.0000       288.81475       98916.454       14103.521       2.7647500      -1.6870000      0.41650000       341.73600       1.8170793     0.013502327
       2680.0000       288.79720       98908.718       14109.936       3.4647500      -1.7262500      0.72525000       341.50800       1.8477254     0.013286131
       2685.0000       288.84827       98910.435       14177.144       3.2752500     -0.68325000     -0.54325000       341.42800       1.8405195     0.011531135
       2690.0000       288.85724       98910.511       14211.989       2.6252500      -1.1835000      0.43625000       341.66800       1.8610999     0.014962461
       2695.0000       288.84145       98910.177       14242.146       2.8127500     -0.10425000      0.92575000       341.80600       1.8389733     0.014898992
       2700.0000       288.85130       98910.118       14276.844       4.3812500     -0.52625000     -0.32275000       341.58600       1.8142737     0.015518430
       2705.0000       288.82957       98910.406       14277.911       3.7060000     -0.26050000      0.37300000       341.71900       1.9038858     0.011305251
       2710.0000       288.84201       98910.466       14303.236       5.4175000      -1.6557500     0.070750010       341.30800       1.8257236     0.013854130
       2715.0000       288.95273       98911.827       14402.238       3.4922500      -1.4187500    -0.061000000       341.54100       1.8720090     0.014102635
       2720.0000       288.96821       98910.698       14414.736       2.8427500      -1.8945000      0.13925000       341.65100       1.8403341     0.015637614
       2725.0000       288.93574       98905.298       14396.539       2.6700000     -0.63400000     -0.42600000       341.60400       1.9009954     0.013729203
       2730.0000       288.90307       98904.375       14347.555       2.2237500      -1.7875000      0.13725000       341.60900       1.8537252     0.016303024
       2735.0000       288.77042       98904.484       14200.654       3.5035000      -1.3027500     -0.34850000       341.50300       1.8440846     0.013264440
       2740.0000       288.72361       98904.548       14103.390       2.4672500    -0.043750000      0.67375000       341.89300       1.8686958     0.012319628
       2745.0000       288.74395       98909.401       14015.730       1.9920000      -2.0930000     -0.40700000       341.78400       1.8774216     0.011760511
       2750.0000       288.74532       98911.260       13932.406       2.0545000      -1.6322500      0.43375000       341.75600       1.8098092     0.015534136
       2755.0000       288.79039       98911.761       13847.900       3.9337500      -1.9582500     -0.55750000       341.15800       1.9591749     0.011552479
       2760.0000       288.80921       98910.655       13796.289       3.4510000      -2.1445000     -0.57800000       341.41600       1.8819246     0.012252642
