MIRICO/SHELL project - Processed LDS file generated on
Fri Jul 14 23:54:53 2017
Time stamp for record start
05/11/2017  14:23:53.0000
Nb of points in the record
         617
Beam position index
       1.0000000
Beam angle (degrees)
      -18.435000
Open Path length (m)
       34.890000
****************** Temporal data record ************************
Elapsedtime_sec Temp_K Press_Pa Humidity_ppmv WindX_m/s WindY_m/s WindZ_m/s Speedofsound_m/s CH4vmr_ppmv CH4vmrerror_ppmv  
      0.00000000       291.83509       98612.933       14035.736       3.5060000       1.2092500     0.038750000       343.37600       2.0614676     0.016493213
       5.0000131       291.84755       98618.859       13996.320       3.6352500       2.2110000      0.29150000       343.80100       1.9654007     0.014859149
       9.9999860       291.85084       98628.960       13948.861       4.0422500       3.2670000      0.46925000       343.12900       1.9736461     0.014319665
       14.999999       291.92481       98634.693       13939.524       3.2552500       3.0437500     0.075000000       343.62600       1.9977973     0.014189686
       20.000012       292.06371       98634.516       13970.673      0.87525000       2.5565000      0.44150000       343.97300       1.9751307     0.016437200
       24.999985       292.23359       98636.558       14032.886       3.0657500       1.9310000      0.26075000       343.79600       2.0244570     0.014802392
       29.999998       292.51678       98641.330       14128.208       2.6707500       2.5905000     -0.30725000       342.79100       2.1092744     0.016743815
       35.000011       292.64237       98641.129       14209.292       2.1907500       5.5017500      -1.2905000       343.21700       1.9446303     0.020829550
       39.999984       292.82196       98638.197       14371.285       2.4957500       2.6257500      0.97325000       343.81400       1.9989469     0.016537879
       44.999997       292.77527       98632.967       14418.573       1.8352500       4.3485000     -0.49325000       343.32600       1.8068870     0.028385510
       50.000010       292.44872       98623.156       14383.746       2.1975000       3.4652500     0.080750000       343.41000       1.8932055     0.032836480
       54.999983       292.31617       98616.239       14372.237       3.5087500       2.6002500    -0.065500010       343.06700       1.9745187     0.014487283
       60.999991       292.05333       98605.139       14295.344       3.1475000       2.2060000     -0.50325000       343.18500       2.0442348     0.015127462
       66.000004       292.04397       98600.872       14276.132       1.6710000       2.7752500     -0.48850000       343.23700       2.0154017     0.015148861
       71.000017       292.21192       98599.835       14285.234      0.97475000       2.7645000      0.50950000       343.22200       2.0251225     0.014551727
       75.999990       292.32888       98598.630       14280.362       2.9630000       1.2070000      0.72875010       343.93500       2.0192839     0.015791073
       81.000003       292.51565       98599.314       14265.982       3.1402500       3.5582500     -0.61800000       343.59300       1.9625240     0.022246355
       86.000016       292.68456       98601.191       14285.150       2.2220000       2.6695000      0.93600000       343.59300       1.9909957     0.013576060
       90.999989       292.92961       98603.169       14340.087       3.5680000       4.2112500     -0.20750000       342.76300       2.0360099     0.015219442
       96.000002       292.96753       98608.836       14329.550       2.7560000       2.5475000     -0.23450000       343.80000       1.9729287     0.017134620
       101.00002       292.94629       98618.878       14313.406       2.2897500       2.6072500     -0.39100000       343.60400       2.0810950     0.015922395
       105.99999       292.87525       98625.824       14294.965       2.9455000       2.3087500     -0.69675000       343.60800       1.9642426     0.019987835
       111.00000       292.63586       98635.507       14239.615       3.4107500       3.6260000     -0.41375000       343.46000       1.9762575     0.013519831
       116.00001       292.47505       98639.806       14175.977       5.2417500       2.4747500     -0.42650000       343.17600       2.0877948     0.015998360
       120.99999       292.31987       98641.365       14126.677       3.8577500       2.8222500      0.12150000       342.53000       2.0429871     0.015080319
       126.00000       292.19788       98640.588       14053.587       3.1332500       1.9392500   -0.0077500000       342.97300       1.8815576     0.026233715
       131.00001       292.04003       98635.561       13925.114       2.6007500       1.4170000      0.94150010       344.16700       2.1474703     0.020672229
       135.99999       291.97428       98633.566       13850.329       3.8347500      0.67100000     -0.73800000       343.37700       2.0737196     0.018704524
       141.00000       291.99694       98631.843       13793.992       5.1090000       2.7702500    -0.016000000       342.77400       2.0316220     0.013481490
       147.00001       291.98486       98625.853       13757.261       1.8250000       2.0517500      0.52350000       343.28500       2.0428004     0.015903306
       152.00002       292.00047       98621.218       13746.312       3.3072500       1.0385000     -0.21100000       343.57900       2.0484341     0.016281407
       156.99999       292.00059       98615.055       13737.306       2.5355000       2.6535000    -0.098750000       343.53600       2.0109622     0.014839910
       162.00001       291.99419       98603.991       13751.716       4.1645000       3.8257500      0.12550000       343.11300       1.9602815     0.014911340
       167.00002       292.01567       98600.276       13746.627       2.6760000       1.9590000      0.67875000       343.87600       2.0931165     0.017083892
       171.99999       292.04446       98599.021       13766.320       2.1462500       2.5482500      0.59575000       342.90500       1.9869594     0.016997273
       177.00001       292.14541       98600.385       13847.619       3.4570000       2.4992500     -0.39175000       343.23200       2.0439049     0.014056540
       182.00002       292.16834       98604.108       13881.623       2.5205000       3.6787500      0.27800000       343.39400       1.9356602     0.017098559
       186.99999       292.11029       98613.311       13860.658       1.6487500       2.1477500      0.60000000       343.50800       1.9267048     0.017992264
       192.00000       292.10046       98620.268       13899.112       2.6155000       2.2240000    -0.091750000       342.76100       1.8585820     0.021200929
       197.00002       292.09062       98627.211       13954.359      0.95950010       1.7120000      0.16050000       343.74000       1.9841300     0.016737295
       201.99999       292.03665       98636.565       14004.412       1.2655000       2.8610000     -0.34250000       343.28200       1.9139740     0.024103342
       207.00000       292.03946       98640.367       14048.153      0.62750010       1.6897500      0.80500010       343.37000       2.0301701     0.019560225
       212.00002       292.10007       98641.412       14147.928       1.7652500       3.0002500     -0.18800000       343.06200       1.9789545     0.017810508
       216.99999       292.13042       98637.188       14138.749       1.8395000       2.2840000      0.19200000       343.33900       2.0179215     0.016902808
       222.00000       292.15067       98635.159       14134.400       2.6747500       2.3600000     -0.42350000       343.14600       1.9756425     0.019343828
       227.00002       292.20031       98636.240       14139.720       2.2292500       3.0097500     -0.11350000       342.80900       2.0264930     0.016857754
       231.99999       292.21267       98631.481       14127.825       2.5795000       1.7247500     -0.46175000       342.92400       1.9951536     0.016996415
       238.00000       292.18119       98623.222       14083.289       1.2880000       1.5132500    -0.097250010       343.99600       1.9827389     0.014856167
       243.00001       292.14965       98614.907       14050.500       2.0305000       2.0002500      0.14600000       342.83800       2.0602384     0.017024578
       247.99998       292.06217       98592.298       13995.121       2.0177500       2.4255000    -0.013250000       343.04400       1.9986191     0.014887237
       253.00000       292.03476       98586.077       13971.107       1.1190000       2.0155000      0.52325000       344.18900       2.0626095     0.015676273
       258.00001       292.05900       98589.803       13983.344       1.8627500       2.7455000     0.069250000       342.98900       1.9833654     0.015229945
       262.99998       292.04938       98594.302       13969.305      0.74800000       2.3152500      0.17225000       344.16100       2.0247011     0.014689143
       267.99999       292.05622       98612.939       13954.240       1.4940000       2.3755000    -0.094250000       342.35800       2.0533205     0.018139635
       273.00001       292.05478       98623.608       13943.021      0.82750000       2.5825000     0.016500000       342.93200       1.9536214     0.017907305
       278.00002       292.00979       98633.236       13899.646       1.0200000      0.92425010      0.22325000       343.67500       2.0336509     0.016010258
       282.99999       291.99106       98637.877       13887.526       1.3845000       2.2735000     0.022500000       343.87300       1.9400149     0.016197072
       288.00001       292.00038       98638.963       13905.352      0.95325010       2.6640000      0.48300000       343.44700       2.0203987     0.013811359
       293.00002       292.00049       98636.534       13920.016       1.1085000       2.5642500      0.15125000       343.42900       2.0318853     0.015208759
       297.99999       292.01431       98624.371       13954.743       2.0420000       3.2767500     -0.33225000       342.46700       2.0293412     0.016563787
       303.00001       292.00307       98618.401       13973.658       1.7717500       2.6445000     -0.22275000       343.63500       1.9668406     0.014344491
       308.00002       291.97994       98616.488       13980.640       2.1962500       3.0020000     -0.39575000       342.64300       2.0576140     0.014027916
       312.99999       291.94889       98609.376       13996.058       3.6217500       2.8670000     -0.27950000       342.92500       2.0796082     0.017071174
       318.00001       291.88997       98597.126       14033.458       2.9612500       2.9885000     -0.63300000       343.05900       2.0748295     0.015915831
       323.00002       291.84054       98593.393       14025.970       2.4317500       2.3560000      0.40675000       343.42800       2.0186258     0.015432191
       328.99999       291.74057       98587.831       13976.198       1.2950000      0.64050000     0.062250000       343.98900       2.0055717     0.017013357
       334.00000       291.73220       98588.396       13958.077      0.69525000      0.50100000       1.1012500       343.80200       2.0272670     0.014644143
       339.00001       291.79398       98600.419       13929.182       1.0557500       2.5782500     -0.16775000       343.38000       2.0404975     0.016542147
       343.99998       291.80382       98608.459       13889.407       1.5992500       1.7145000    -0.084250000       343.83700       1.9848019     0.015657828
       349.00000       291.85192       98616.245       13856.795       1.3707500       3.4317500     -0.47550000       343.76700       2.0320678     0.015168104
       354.00001       291.86460       98623.232       13837.367       1.8107500       2.5865000    -0.061500000       343.50500       2.0091616     0.014977874
       358.99998       291.80494       98634.406       13785.854       1.6810000       1.5915000      0.40975000       344.40300       1.9641937     0.014278198
       364.00000       291.78890       98638.193       13775.574       2.4437500      0.85125010      0.38900000       344.17400       1.9428985     0.020422716
       369.00001       291.79992       98638.645       13817.103      0.25900000       1.9402500      0.54375000       344.86600       2.0548658     0.015465286
       373.99998       291.79988       98635.617       13842.760       1.3892500       3.4370000      -1.0320000       343.49700       1.9999169     0.015705064
       379.00000       291.81342       98624.613       13889.462      0.98825000       3.3105000      -1.0287500       343.03400       2.0118141     0.015372166
       384.00001       291.79953       98617.554       13902.077      0.63350000       1.5950000    -0.084500010       343.96300       1.9928833     0.015786153
       388.99998       291.71099       98607.610       13862.500       2.5797500       3.2747500     -0.53400000       342.84600       2.0809510     0.017707663
       394.00000       291.74625       98602.358       13900.554       1.3940000       2.2022500      0.12500000       343.31200       2.0181311     0.018999899
       399.00001       291.85914       98600.899       13967.615       1.1730000       1.4887500      0.14725000       343.96100       2.0174392     0.014596225
       403.99998       291.92297       98599.269       14023.780       1.8782500       2.7410000      0.18750000       343.55100       2.0439344     0.015242635
       408.99999       292.06716       98598.905       14144.757       2.1837500       1.0435000       1.1427500       344.02300       2.0837993     0.019002292
       414.00001       292.14522       98600.227       14223.484       2.2590000       4.1042500     -0.83025000       342.95600       2.0851038     0.015318876
       420.00002       292.12979       98602.092       14258.712       1.8485000       2.4297500     0.015250000       344.11300       2.0006752     0.015533055
       424.99999       292.16655       98607.415       14317.312       1.2965000       3.7450000     -0.87525000       343.01100       1.9757618     0.016268956
       430.00000       292.24105       98618.689       14411.375       2.9677500       2.4607500      0.18150000       343.25900       2.0998341     0.015659821
       435.00001       292.27493       98624.128       14453.366       2.1167500       3.5447500     -0.81425010       342.93800       2.1654410     0.016459304
       439.99999       292.31097       98632.363       14493.052       2.6365000       3.2035000      0.22900000       343.63000       2.0908747     0.016677161
       445.00000       292.30879       98631.860       14485.408       1.7885000       3.1865000    -0.069500010       343.16000       2.1126661     0.017405898
       450.00001       292.25772       98625.108       14410.469       1.5395000       2.8450000      0.35225000       343.13900       2.0220512     0.013910690
       454.99999       292.23782       98616.248       14377.633       1.3040000       2.2290000      0.23575000       343.58400       2.0894374     0.016679244
       460.00000       292.21199       98597.851       14347.309       1.3075000       2.1812500     -0.14025000       344.00200       2.1435871     0.017531156
       465.00001       292.18230       98589.111       14292.379      0.56400000       2.3872500      0.18300000       344.03800       2.0097815     0.013840805
       469.99999       292.18260       98576.995       14247.305      0.30450000       3.1825000      0.19350000       343.80900       2.0557835     0.015601476
       475.00000       292.12985       98577.813       14177.262       1.1225000       2.8472500      0.47300000       343.72800       2.0317828     0.014302316
       480.00001       292.03968       98596.162       14062.518     -0.32450000       1.1122500      0.78850000       344.04400       2.1717659     0.015132508
       484.99998       291.95307       98597.321       13974.156       1.5460000       1.1112500      0.36025000       343.84400       2.0759912     0.015665954
       490.00000       291.81536       98594.991       13873.128       3.5125000       2.6840000    -0.032000000       343.33100       2.0022783     0.014850762
       495.00001       291.74717       98596.365       13819.752       2.7677500       3.1865000     -0.51675000       343.23000       2.0352149     0.015034637
       499.99998       291.70137       98587.924       13776.071       2.6245000       2.5277500     -0.57675000       343.20000       2.1795316     0.018126589
       505.00000       291.67400       98589.460       13770.662       1.9022500       1.9505000     -0.48725000       343.34800       2.0833275     0.016752095
       511.00000       291.70086       98606.459       13826.478       2.3122500       2.6397500     -0.75575010       343.31100       2.1444846     0.023200200
       516.00002       291.70116       98608.842       13868.059       1.4507500      0.60425000      0.51125000       344.01800       2.1833239     0.016423800
       520.99999       291.70926       98607.568       13942.149       1.3585000       2.0940000   -0.0077500000       343.14000       2.5627344     0.017258172
       526.00000       291.69059       98602.899       13967.149       3.2572500       2.8220000     -0.10775000       343.55800       2.8121267     0.015130175
       531.00002       291.65329       98587.963       13967.565       2.6695000       1.8265000      0.12275000       343.30500       3.5433041     0.015125006
       535.99999       291.63324       98588.476       14000.167       1.8300000       1.2777500      0.62400000       344.10300       3.4796252     0.018281569
       541.00000       291.61501       98591.766       14039.773       1.9532500       1.1862500   -0.0035000000       343.30500       2.7334221     0.016755857
       546.00002       291.56684       98599.246       14031.363       2.6150000       1.1375000     -0.28775000       343.57800       2.4784543     0.014876009
       550.99999       291.50826       98620.424       14026.624       2.4120000       2.3422500     -0.16500000       343.13100       2.5252806     0.017136415
       556.00000       291.46856       98627.789       14007.529       2.2582500       1.8805000     -0.18800000       344.14700       4.8694131     0.017142122
       561.00001       291.39407       98630.921       13927.390       1.8460000       1.7635000    -0.088000010       343.45300       3.8579236     0.017388392
       565.99999       291.37174       98633.172       13890.750      0.49325000       1.2092500      0.36275000       344.25900       3.3148072     0.018015968
       571.00000       291.39175       98633.061       13884.318       1.5525000      0.74900000      0.22900000       344.38000       3.8605519     0.017728438
       576.00001       291.41085       98627.487       13867.999       1.4567500       2.5677500     -0.53800000       343.15100       4.9377812     0.018893202
       580.99999       291.44697       98617.948       13834.444       1.5907500       1.9222500     -0.23875000       343.12000       2.3622305     0.015947578
       586.00000       291.46713       98608.202       13830.089       1.7220000       2.0852500      0.39700000       343.87800       2.4361139     0.015207751
       591.00001       291.50323       98588.314       13849.778       3.6432500       1.8467500      0.92900000       343.51800       2.4125349     0.015742868
       595.99999       291.51445       98584.693       13862.885       4.2347500       1.8415000      0.17050000       343.00300       2.5319514     0.017175284
       601.99999       291.50047       98588.458       13886.004       3.2412500       2.0300000    -0.094500010       343.14300       4.2005604     0.017317784
       607.00001       291.50059       98593.061       13905.748       2.1895000       1.3427500     -0.20875000       343.03100       3.8337112     0.016561123
       612.00002       291.49986       98605.335       13925.097       3.1307500       3.3465000      0.23550000       343.13400       3.4983188     0.015170218
       616.99999       291.50006       98614.959       13973.609       2.9720000       2.8672500     -0.48525000       342.80000       3.0134558     0.016103200
       622.00001       291.50006       98621.195       14006.345       2.6042500       3.1602500     -0.49925000       342.49800       5.3993392     0.018409114
       627.00002       291.51513       98631.843       14077.801       2.3835000       1.5297500     -0.20725000       342.77500       3.5675152     0.016028452
       631.99999       291.50635       98633.367       14087.406       2.2110000      0.97800000      0.12325000       343.58400       3.8549910     0.021297271
       637.00000       291.43995       98624.354       14003.520       2.4725000       1.1985000    -0.058500000       343.45600       4.2943831     0.016297826
       642.00002       291.43735       98616.688       13977.635       2.9160000       1.4827500    -0.023500000       343.43800       3.3718098     0.014514611
       646.99999       291.45939       98606.564       13960.504       1.5500000       2.4830000     -0.12550000       343.65300       4.1001084     0.022210849
       652.00000       291.47881       98587.285       13909.772       2.6732500       1.9520000    -0.074000000       343.18300       3.8077014     0.014497938
       657.00002       291.55386       98584.925       13939.770       2.4940000      0.99800000      0.25825000       342.92100       3.9643502     0.017857426
       661.99999       291.72395       98588.613       14053.610       2.3615000       2.0755000     -0.35275000       342.69500       4.8304227     0.017475959
       667.00000       291.70872       98597.294       14057.580       2.9660000       2.0142500     -0.57125000       342.58900       4.2098593     0.018694986
       672.00002       291.71119       98605.309       14068.973       3.0440000       1.3952500     0.016500000       342.80600       4.0961435     0.015458166
       676.99999       291.62932       98617.853       14032.421       2.5625000       1.4962500      0.42950000       343.22700       5.1843039     0.017898495
       682.00000       291.58708       98622.194       14019.103       2.0762500       2.0587500     -0.19800000       343.16000       3.3050420     0.014867225
       687.00002       291.56943       98622.854       14020.029       1.7337500       1.6430000     -0.31600000       343.31600       2.8948889     0.020676215
       692.99998       291.60006       98621.552       14052.185       2.2985000       2.6652500     -0.37700000       343.34600       2.7511557     0.014001546
       698.00000       291.57168       98616.582       14031.599       1.8112500       1.5235000     -0.21650000       343.37300       2.0142863     0.014863228
       703.00001       291.59432       98609.407       14047.513       1.7917500       2.4372500     -0.92650000       343.37300       1.9734576     0.015948202
       707.99998       291.66965       98599.738       14095.970      0.67025010       1.6302500     -0.17100000       343.40000       2.0566434     0.015542979
       713.00000       291.71017       98593.639       14114.974      0.96725000       1.4522500      0.31150000       343.71200       2.0083116     0.015133883
       718.00001       291.76662       98578.810       14137.341      0.84625010       1.7145000      0.59800000       343.93600       2.0023894     0.017134990
       722.99998       291.81461       98576.616       14163.578       2.9415000       2.9102500      0.29100000       343.61300       2.0584398     0.014407430
       727.99999       291.83378       98587.689       14173.502       3.1237500       2.3840000     -0.35900000       343.36600       2.0489508     0.013592455
       733.00001       291.85360       98595.885       14176.763       1.2107500       2.8307500     -0.31375000       343.15300       1.9491405     0.020012508
       738.00002       291.87514       98613.955       14177.835       1.5490000       2.6315000     -0.28825000       343.10700       2.0324903     0.013624123
       742.99999       291.90507       98623.595       14196.903       1.7637500       2.9830000     -0.42750000       342.98000       1.9902271     0.017189497
       748.00001       291.94793       98631.156       14223.123       2.3082500       2.4755000     -0.79500000       343.04500       2.0529259     0.016274455
       753.00002       291.95669       98632.749       14229.319      0.70925000       2.3127500      0.43925000       343.64200       2.0366353     0.018249962
       757.99999       291.95582       98627.614       14253.071      0.50125000       1.8517500     -0.68450000       343.35200       2.0566875     0.017089403
       763.00001       291.95471       98620.285       14259.531       1.2840000       2.8665000     -0.87450000       343.17300       2.0081820     0.014795089
       768.00002       291.93805       98601.846       14247.931       2.9362500       1.7527500      0.35950000       343.01000       1.8781916     0.019882235
       772.99999       291.89717       98592.128       14209.645      0.86125000       2.9222500      0.83325000       343.23700       2.0304570     0.016694080
       778.00000       291.81879       98578.775       14132.626      0.50375000       2.3912500      0.45675000       343.05200       2.0144364     0.016911225
       784.00001       291.78580       98577.099       14083.029       1.7295000       2.4045000     -0.29700000       343.11900       1.9839949     0.013540466
       788.99999       291.77367       98589.049       14039.396       1.0742500       2.5387500      0.25425000       343.43800       1.9608843     0.017419347
       794.00000       291.73300       98597.821       13984.844      0.89500000      0.77750000      0.76025000       343.47700       2.0140218     0.015899726
       799.00001       291.70491       98616.593       13931.947       1.0222500       4.2027500      0.79050000       343.27300       2.0098810     0.014482446
       803.99998       291.69480       98625.532       13913.812       1.9410000       2.1215000      0.19100000       343.47300       1.9691251     0.014766962
       809.00000       291.66112       98629.543       13896.757       1.6985000       2.5295000     -0.32975000       343.26500       1.9633038     0.018188837
       814.00001       291.63531       98632.801       13880.964       2.0477500       2.5035000     -0.12025000       342.97700       1.9823769     0.016026538
       818.99998       291.65670       98634.171       13904.509       2.0260000       2.0762500    -0.018500000       343.30600       2.0781870     0.015251678
       824.00000       291.65292       98630.118       13921.791       1.4562500       2.5847500      0.23925000       343.68700       2.1231868     0.015250384
       829.00001       291.61836       98621.832       13924.632       1.0480000      0.92025010     -0.57025000       343.20100       1.9704546     0.013726733
       833.99998       291.58825       98613.007       13926.729       1.9575000     0.019500000      0.61000000       343.69700       2.3626227     0.015126023
       839.00000       291.54925       98591.795       13936.695      0.90225010       3.1887500     -0.64375000       343.45000       2.0844326     0.015077420
       844.00001       291.54301       98585.626       13961.505       2.0587500       2.7197500      0.25550000       342.96600       2.0015303     0.016840664
       848.99998       291.54363       98585.053       13985.512       1.2260000       3.4882500      0.11850000       343.18000       2.0433580     0.014276666
       853.99999       291.54741       98589.824       14004.366       1.8995000       2.6525000   -0.0095000010       343.02600       2.0054359     0.014983229
       859.00001       291.56920       98610.728       14028.796      0.81550000       1.8737500     -0.14125000       343.50300       1.9737752     0.016486913
       864.00002       291.61245       98619.873       14076.266      0.85875000       3.4075000     -0.51650000       342.88600       2.0253361     0.014553535
       869.99999       291.68223       98632.517       14146.193       1.9672500       1.8780000      0.14575000       343.28400       2.0046854     0.014417410
       875.00000       291.72230       98633.272       14179.262       1.8702500       1.6642500      0.57550000       343.35500       1.9971038     0.015340039
       880.00001       291.76553       98621.675       14219.058       2.8955000       2.7305000     -0.44975000       343.14300       1.8971791     0.022847240
       884.99999       291.84269       98617.586       14272.491       1.3767500       2.8517500     -0.22875000       343.22000       1.9196109     0.022358994
       890.00000       291.97337       98613.734       14356.642       1.8350000       1.3665000    -0.043500000       343.02900       2.2805440     0.017201273
       895.00001       291.96897       98606.123       14319.163       1.6732500       1.5992500     -0.33800000       342.96800       2.0408891     0.016523324
       899.99999       291.92978       98597.628       14247.612       3.6547500       2.7880000     -0.47600000       343.23800       2.2306102     0.015144959
       905.00000       291.89120       98591.658       14164.651       3.8427500       2.4065000     -0.20325000       342.95700       2.9557917     0.016079196
       910.00001       291.70378       98578.253       13938.069       1.7800000       3.8882500     -0.43575000       342.95900       2.0349896     0.015613816
       914.99999       291.64888       98577.263       13833.244       2.9347500       3.3802500      0.17075000       343.08700       4.9232124     0.020029667
       920.00000       291.68816       98584.833       13800.793       3.0910000       3.1102500     -0.11950000       343.10200       4.1377331     0.015301301
       925.00001       291.70442       98593.683       13754.853      0.44275000       2.4095000     -0.20600000       343.34100       2.5659008     0.015543546
       929.99998       291.75305       98612.723       13733.248      0.56900000       2.9582500     -0.17300000       343.21700       1.9747639     0.017851691
       935.00000       291.75678       98621.562       13689.984       1.5192500       2.8252500    0.0015000000       343.16200       2.0015486     0.016758343
       940.00001       291.73439       98632.297       13617.249       1.5340000       1.5667500      0.20775000       343.42900       1.9586387     0.016788560
       944.99998       291.76048       98633.246       13625.905       1.7535000      0.49700000      0.83225010       343.97700       2.7414011     0.020140582
       950.00000       291.78441       98625.191       13668.826       1.9455000       1.6015000     -0.10350000       343.68200       1.9840175     0.015476274
       955.00001       291.81014       98616.332       13703.238       1.6747500       1.9335000    -0.079750000       343.46700       2.0279049     0.015871365
       961.00002       291.87808       98596.174       13799.574    -0.065750000       2.1167500    0.0025000000       343.56100       2.0746093     0.016432121
       965.99999       291.95726       98587.929       13899.508       2.0240000       2.1120000     -0.34875000       343.70500       3.2456013     0.017599160
       971.00000       292.03848       98577.779       13994.836      0.95125000       1.8265000      0.37875000       344.21900       2.1371411     0.015086518
       976.00002       292.09878       98578.228       14090.890       2.8350000       2.8797500     -0.48575000       342.76800       2.3342940     0.016453810
       980.99999       292.19266       98587.178       14238.497       1.1790000       2.5377500      0.20675000       343.18800       2.7219963     0.019559219
       986.00000       292.26382       98596.805       14352.144       1.5825000       3.4257500     -0.16050000       343.28800       2.1404330     0.018555650
       991.00002       292.29175       98614.679       14443.056       1.7055000       3.2302500     -0.86450000       343.20600       2.0340561     0.014182466
       995.99999       292.33115       98622.797       14496.157       1.6232500       4.2200000     -0.69000010       342.74400       1.9579977     0.017152602
       1001.0000       292.40584       98632.957       14574.856       1.9270000       3.0390000     -0.69675000       343.02800       2.0753166     0.014671483
       1006.0000       292.42825       98632.598       14553.420      0.69550000       2.2622500      0.29200000       343.16600       2.0465505     0.014673868
       1011.0000       292.39067       98624.142       14415.000       1.4612500       1.9967500      0.85100000       343.66400       2.0354103     0.014879860
       1016.0000       292.40958       98614.430       14365.881       1.6030000       2.7507500     0.030000000       343.21100       2.0155500     0.014073615
       1021.0000       292.45497       98595.909       14311.296      0.97450010       2.2405000      0.16450000       343.17500       2.0515112     0.014565747
       1026.0000       292.45636       98587.620       14262.187      0.53525000       2.5250000     -0.13950000       343.25900       2.0918279     0.016278346
       1031.0000       292.45604       98576.768       14249.359       1.0600000       1.6125000      0.43750000       343.33200       2.0139958     0.015531505
       1036.0000       292.44716       98578.946       14203.673       1.0075000       1.4145000     0.058000000       343.08300       2.0485258     0.016096601
       1041.0000       292.38773       98592.315       14109.235      0.97975000       2.3092500      0.43425000       343.56000       2.0685336     0.015461226
       1046.0000       292.39502       98602.014       14094.968       1.7867500       1.6492500     -0.21625000       343.79100       2.0574789     0.015947068
       1052.0000       292.44884       98623.317       14119.566       3.2700000       4.5862500     0.065000010       343.54300       2.0665451     0.015076777
       1057.0000       292.46898       98625.616       14128.912       2.1280000       2.5102500     -0.10800000       343.45500       2.0258766     0.017708419
       1062.0000       292.51202       98623.188       14179.226       2.9175000       2.8007500     -0.18950000       343.26400       2.0564630     0.017695479
       1067.0000       292.45502       98605.480       14131.382       2.3367500       3.0297500     -0.60775010       343.10000       2.0310696     0.014738903
       1072.0000       292.44370       98594.227       14131.396      0.86350010       3.1330000      -1.0982500       343.23700       2.0585764     0.015165441
       1077.0000       292.43003       98572.711       14157.009       2.0217500       2.5965000     -0.71750000       342.85500       2.0220551     0.015319301
       1082.0000       292.43778       98569.744       14183.411       1.4490000       3.1782500     -0.28675000       342.61900       2.0193563     0.019497839
       1087.0000       292.53017       98597.331       14303.892       1.3732500       1.7547500     0.028000000       343.14600       2.0057687     0.018857998
       1092.0000       292.56265       98602.858       14326.131       1.7512500       1.9445000      0.18450000       343.33100       2.0671456     0.015502087
       1097.0000       292.57055       98603.468       14297.924       1.0640000       2.0820000    -0.070500000       343.10700       2.0745145     0.014547841
       1102.0000       292.56356       98606.047       14222.376      0.51600000       1.4907500      0.49025000       343.41600       2.0965532     0.015311971
       1107.0000       292.53043       98611.816       14143.712       1.2757500       1.3765000      0.61925010       343.47600       1.9740209     0.016793931
       1112.0000       292.44425       98603.512       13989.173       2.2252500       2.1675000     -0.25625000       343.08400       2.0509065     0.015649932
       1117.0000       292.42992       98621.076       13948.357       2.5025000       3.1010000     0.026250000       343.25000       2.1304325     0.013716505
       1122.0000       292.39988       98625.242       13884.487       1.4997500       1.5182500      0.65500000       343.51100       2.0341649     0.015408754
       1127.0000       292.38495       98604.296       13804.551       1.6327500       3.4372500      -1.6092500       342.93000       1.9378812     0.019874452
       1132.0000       292.35649       98594.181       13747.310       2.6872500       2.2875000     -0.11850000       343.58900       2.6573325     0.016034831
       1137.0000       292.31581       98586.537       13696.377       2.5457500       2.3765000      0.12475000       343.38800       2.1947758     0.014856849
       1143.0000       292.23847       98577.101       13624.890       2.2915000       2.1267500     -0.15750000       343.30700       2.0125630     0.016456093
       1148.0000       292.19621       98582.876       13626.699       2.6930000       1.3250000      0.81775000       343.88800       2.0359130     0.017970524
       1153.0000       292.18886       98590.322       13639.806       1.5587500       3.0402500     -0.18600000       343.50000       2.0584028     0.013978032
       1158.0000       292.23475       98611.524       13697.806       3.9425000       2.6057500    -0.037500000       343.51900       2.0733154     0.016915531
       1163.0000       292.25494       98619.083       13727.623       2.1025000       3.5147500     -0.68225000       342.84600       3.2560375     0.016981664
       1168.0000       292.27647       98622.075       13749.778       3.1260000       3.1462500      0.16500000       343.32500       2.0151280     0.013372393
       1173.0000       292.30619       98622.531       13779.836       1.5580000       2.9100000      0.60175000       343.73900       2.0834121     0.014402731
       1178.0000       292.33378       98613.098       13799.798      0.56075000       1.7175000       1.1290000       343.29500       2.0272407     0.014968182
       1183.0000       292.35357       98604.013       13820.935       1.9825000       3.6235000     -0.68700000       343.25300       1.9761473     0.015991426
       1188.0000       292.39013       98586.935       13853.494       1.6742500       2.8200000     0.010000000       343.52100       2.0135947     0.015926701
       1193.0000       292.40871       98582.465       13882.974       1.0885000       2.8677500    -0.058750000       343.48400       2.0187093     0.017162190
       1198.0000       292.41415       98579.380       13919.494       3.7052500       3.3680000      -1.4192500       343.23000       2.1478388     0.014278149
       1203.0000       292.40294       98583.173       13930.159       2.0907500       2.2852500     -0.21125000       343.23000       2.3406418     0.016421915
       1208.0000       292.32294       98610.468       13901.003       3.6337500       3.0190000     -0.51675000       342.95300       2.0538608     0.013994101
       1213.0000       292.33588       98619.970       13918.695       3.2475000       3.6457500     -0.60150000       342.87200       2.0772813     0.017166818
       1218.0000       292.42638       98622.052       13968.611       2.1920000       3.0897500      0.59850000       343.32800       2.7198159     0.016225039
       1223.0000       292.45613       98622.547       13977.994       1.8797500       3.4142500     -0.33150000       343.05600       2.0045936     0.014681143
       1228.0000       292.53883       98613.452       14007.636       2.1580000       3.4710000     -0.56600000       342.91300       1.9795399     0.014793958
       1234.0000       292.57774       98602.437       14018.432       2.1325000       1.7950000      0.78825000       343.18000       1.9706354     0.014578454
       1239.0000       292.51792       98588.118       13987.286      0.22825000       2.4217500     -0.10950000       343.37600       2.0007246     0.014979751
       1244.0000       292.48769       98581.900       13938.127      0.22250000       3.8480000      0.20825000       342.85500       2.0564752     0.015728822
       1249.0000       292.46110       98573.045       13874.904       1.2612500       2.2660000     -0.27600000       343.10800       2.0239019     0.017154440
       1254.0000       292.44091       98572.892       13819.506       2.8097500       1.9647500       1.0507500       343.33900       1.9759021     0.015223060
       1259.0000       292.44356       98586.311       13745.828       1.8877500       3.5875000     -0.83450000       343.21700       1.9749098     0.014767114
       1264.0000       292.38625       98593.303       13655.844       2.4632500       2.0650000     0.028750000       343.00600       2.0374183     0.015538081
       1269.0000       292.28611       98604.602       13546.679       1.8807500       3.4227500     -0.37525000       343.23100       2.0250523     0.013982311
       1274.0000       292.22650       98608.566       13482.550       3.1387500       1.8280000     -0.26075000       343.38400       2.0308897     0.014522955
       1279.0000       292.11545       98608.939       13401.781       2.9930000       1.2027500      0.23750000       343.23400       2.4641561     0.014764770
       1284.0000       292.06706       98605.859       13355.801       1.2882500       1.4077500      0.10825000       343.65600       3.2704658     0.015732085
       1289.0000       292.08704       98593.281       13371.267       3.2115000       1.0062500      0.22275000       342.76700       2.8012707     0.016443258
       1294.0000       292.10086       98587.645       13375.184       2.8280000      0.57775000      0.32925000       343.25900       4.1108057     0.017686045
       1299.0000       292.12602       98577.450       13366.864       2.5245000       1.2602500      0.71700000       343.72300       4.2921461     0.017017149
       1304.0000       292.15988       98578.235       13386.355       2.2685000      0.81850000      0.45175000       343.70300       3.8211783     0.016988696
       1309.0000       292.22033       98591.772       13432.422       3.2725000       1.7155000     -0.31625000       343.49400       3.7847786     0.015554552
       1314.0000       292.26999       98597.716       13484.135       1.6987500       3.2857500      0.10325000       343.18900       3.8012000     0.017291746
       1319.0000       292.33195       98610.043       13547.093       2.6022500      0.53750000      0.51750000       344.86800       4.5960610     0.020724509
       1325.0000       292.37362       98613.509       13637.191       3.2802500       2.0330000     -0.59250000       343.15500       2.3277860     0.015540652
       1330.0000       292.37753       98609.522       13733.409       3.4130000       1.6035000     -0.48675000       343.12100       2.1259671     0.016620553
       1335.0000       292.42443       98602.639       13822.181       2.6227500       1.2800000     -0.12750000       344.18600       2.6603395     0.014397213
       1340.0000       292.47478       98586.287       13940.120       1.8475000       2.8207500     -0.35750000       344.88200       3.0013282     0.016098532
       1345.0000       292.53130       98580.484       14001.623       2.9010000       2.6095000     -0.33300000       342.59600       2.5656617     0.014238991
       1350.0000       292.61919       98571.323       14025.506       2.7675000       2.7780000     -0.45050000       342.95700       2.8068084     0.016524271
       1355.0000       292.69871       98574.122       14069.074       3.0635000       3.3292500     0.058250000       343.27700       2.5501061     0.015870415
       1360.0000       292.83958       98593.061       14138.591       3.4365000       1.9260000     -0.35625000       343.00900       2.7667526     0.017818198
       1365.0000       292.81297       98600.468       14091.233       3.9915000       2.5327500     -0.64325000       343.13300       5.5725870     0.019073148
       1370.0000       292.68129       98610.191       13970.701       2.6515000       1.8837500     -0.37300000       343.26800       2.6272761     0.016406944
       1375.0000       292.62438       98614.371       13909.757       1.3222500       1.7067500      0.59775000       343.92700       2.6304446     0.018656272
       1380.0000       292.43706       98614.598       13758.968       1.8067500       1.2305000      0.23075000       344.26800       5.2994386     0.017781539
       1385.0000       292.40390       98608.049       13703.645       2.0915000       3.7397500     -0.19825000       342.87700       2.3150463     0.017864516
       1390.0000       292.53078       98592.123       13759.967       2.5417500       1.9347500     -0.14525000       343.36700       2.8945131     0.017248358
       1395.0000       292.58077       98585.723       13765.154       3.3532500       2.5790000     -0.35175000       343.09500       3.0683714     0.015608160
       1400.0000       292.64110       98572.552       13755.910       1.3957500       2.3380000     0.083750000       343.42800       2.2498170     0.015587428
       1405.0000       292.67446       98572.301       13752.304       2.6117500       1.1465000     0.039750000       344.16400       2.1189639     0.018763070
       1410.0000       292.68793       98587.317       13753.934       1.9437500       2.9275000     -0.12125000       343.52200       2.4313290     0.017180436
       1416.0000       292.72405       98595.765       13771.306       2.8985000       2.6345000     -0.78375010       343.24800       2.2436423     0.015656967
       1421.0000       292.76332       98606.267       13795.611       2.4697500       2.7810000      0.23500000       343.35000       2.3034604     0.014356544
       1426.0000       292.74548       98608.630       13790.589       3.7857500       1.7520000      0.36575000       343.94000       2.4395991     0.019069904
       1431.0000       292.72786       98608.503       13792.050       2.0742500     0.094250000      0.62650000       344.17300       3.0643124     0.014867457
       1436.0000       292.66201       98601.985       13776.566       2.2305000       1.7367500      0.59775000       344.04500       2.5625727     0.015550385
       1441.0000       292.51888       98585.377       13729.737       3.0337500       1.9227500     0.086500000       343.80300       3.7970352     0.018064358
       1446.0000       292.41957       98580.188       13684.516       2.8667500       1.9657500     -0.23775000       344.06000       2.6062834     0.015170205
       1451.0000       292.30277       98571.282       13634.712       4.9262500       1.3037500      0.80625000       343.22800       4.3382010     0.017090098
       1456.0000       292.24053       98575.444       13600.763       3.5345000       2.3837500     0.070000000       343.62800       3.1546780     0.016250285
       1461.0000       292.19420       98594.978       13555.948       3.2900000       2.3050000     -0.11875000       343.53500       4.1347029     0.020402146
       1466.0000       292.17199       98600.233       13521.366       4.1415000       2.3252500     -0.61800000       342.62600       5.9569189     0.018093799
       1471.0000       292.19909       98608.246       13504.752       1.4105000       2.7672500      0.15050000       342.82200       2.6845130     0.015021389
       1476.0000       292.19868       98605.924       13490.620      0.92025010       1.9610000      0.19150000       342.93400       4.0693117     0.017567478
       1481.0000       292.20884       98591.610       13471.330       1.4577500       2.5707500     -0.22375000       343.08900       2.7241272     0.014649079
       1486.0000       292.19023       98584.623       13459.104       1.2657500       2.8257500    -0.075000000       343.32600       4.0943775     0.020916142
       1491.0000       292.11775       98572.277       13445.776       2.0915000       2.0930000      0.57375000       344.00200       2.4964634     0.015735482
       1496.0000       292.17209       98573.553       13486.527       1.1667500       1.6447500    -0.036750000       343.23200       2.0530225     0.014397408
       1502.0000       292.29075       98583.661       13568.437       2.0020000       1.1185000     -0.41600000       343.69800       2.1104673     0.015036245
       1507.0000       292.36321       98590.990       13604.800       2.0030000       1.0890000    -0.072750000       343.38900       3.1118844     0.020714133
       1512.0000       292.53013       98607.084       13668.433       1.8055000       1.1210000    -0.012500000       343.93800       2.8423052     0.017136818
       1517.0000       292.49871       98613.168       13747.504       1.6947500       1.8460000     -0.66250000       344.19000       3.1117262     0.015815204
       1522.0000       292.46101       98612.712       13781.864       1.2470000       1.5847500      0.27575000       344.87400       2.6410413     0.017519175
       1527.0000       292.33894       98602.789       13832.809       3.1285000       2.6315000     -0.58425000       343.04300       3.1081143     0.018359093
       1532.0000       292.28703       98595.950       13870.705      0.71400000       2.2857500      0.72600000       344.07400       2.3191690     0.014636721
       1537.0000       292.30490       98577.398       13884.800       2.5960000      0.42925000     0.045250000       344.03400       2.6834872     0.016300858
       1542.0000       292.25650       98571.715       13842.684       1.9020000      0.64225000     -0.68925010       343.87600       2.2832714     0.014164971
       1547.0000       292.19581       98573.406       13771.950       2.0327500       1.2472500     0.080250000       344.49300       2.6567655     0.015212713
       1552.0000       292.15856       98583.613       13688.855       3.6257500       3.4407500      0.44950000       343.60300       1.9820399     0.017152079
       1557.0000       292.10626       98590.921       13619.863      0.74075000       2.8405000     -0.14875000       343.42600       2.0790774     0.015139396
       1562.0000       291.98842       98607.508       13495.677       1.0587500       2.0710000    -0.064500000       343.79600       2.0915655     0.016215760
       1567.0000       291.96938       98610.097       13435.354       1.0747500      0.37800000       1.0002500       344.51200       1.9560697     0.015819767
       1572.0000       291.94914       98607.642       13399.145       1.9562500       2.9767500     -0.12225000       343.10700       2.0362294     0.014080524
       1577.0000       291.91528       98591.356       13356.121       3.0565000       2.1592500     -0.36800000       343.34100       1.9739307     0.016289774
       1582.0000       291.89445       98584.191       13331.437       2.8677500       3.0100000     -0.19825000       343.44400       1.9869884     0.016241877
       1587.0000       291.88591       98579.471       13330.676       2.0717500       2.9410000      0.12950000       343.70900       1.9368378     0.014352323
       1593.0000       291.89043       98572.006       13377.529       1.7312500       2.4240000     -0.12100000       343.54300       2.0431588     0.015544387
       1598.0000       292.00230       98589.549       13442.766      0.96500000      0.87375000     0.086250010       343.81900       2.2068296     0.015466807
       1603.0000       292.06260       98597.502       13488.888       3.5555000       2.7435000     -0.26650000       342.90100       2.2060798     0.016259969
       1608.0000       292.15766       98611.732       13545.464       3.3617500       3.3145000     -0.28750000       343.27200       1.9919735     0.015412628
       1613.0000       292.22567       98614.109       13610.000       3.1197500       2.4220000      -1.1047500       342.83600       2.0318477     0.015526027
       1618.0000       292.26240       98601.331       13687.650       3.6972500       1.1432500      0.40800000       343.57000       2.4232564     0.014606905
       1623.0000       292.25959       98594.220       13723.461       4.0367500       2.7290000    -0.064750000       343.16300       5.2912931     0.017989288
       1628.0000       292.20811       98575.474       13744.410       2.5415000       1.7415000     0.077750000       343.69100       2.0065249     0.016310670
       1633.0000       292.19812       98571.169       13771.741       3.0177500       2.0962500      0.43625000       343.80800       4.1808809     0.017749105
       1638.0000       292.18242       98579.649       13799.044       2.7920000       1.5250000      0.97725000       343.30000       4.3674292     0.016876838
       1643.0000       292.14249       98584.866       13767.657       3.3957500       2.9797500     -0.34475000       342.59700       5.2586515     0.017513423
       1648.0000       292.09372       98602.061       13694.535       3.4060000       3.1210000     -0.38300000       342.67200       2.7412418     0.016218745
       1653.0000       292.09515       98608.685       13653.878       2.1665000       2.5527500     0.030500000       342.65100       4.2272348     0.016719470
       1658.0000       292.08898       98610.199       13560.186       2.4497500       2.3735000     -0.29500000       342.76100       4.5307816     0.017768751
       1663.0000       292.09146       98606.797       13498.748       1.7717500       2.0425000    -0.099000010       343.15000       2.8643391     0.016316520
       1668.0000       292.16661       98589.602       13504.451       1.9517500       1.5180000     0.014500000       343.53600       2.5252653     0.015861331
       1673.0000       292.21492       98582.944       13483.131       3.0560000       2.4262500     -0.68950000       342.87000       4.4967279     0.017626712
       1678.0000       292.23302       98577.985       13426.699       1.7890000      0.53875010     -0.44075000       343.56700       4.3022578     0.015879775
       1684.0000       292.25691       98572.638       13398.820       2.7980000      0.97425000    -0.034000000       343.84100       4.2246124     0.019320547
       1689.0000       292.25674       98575.932       13371.386       2.7610000       1.1387500      0.57000010       343.95800       3.2795559     0.015609803
       1694.0000       292.31507       98575.598       13396.336       3.9785000       3.1252500      -1.6140000       343.29200       4.3731962     0.023870009
       1699.0000       292.42861       98570.850       13469.958       3.8125000       2.7450000      0.29950000       343.44800       3.3974613     0.019789595
       1704.0000       292.47509       98569.253       13536.103       2.3695000       4.2827500     -0.74175010       342.90500       3.2684491     0.016693048
       1709.0000       292.52179       98570.376       13631.821      0.61875000       2.0655000    -0.062750000       343.66200       2.0712843     0.016670067
       1714.0000       292.57737       98570.394       13731.798       3.3305000       1.0507500      0.54850000       343.86400       2.0246343     0.014561754
       1719.0000       292.59384       98566.377       13873.623       2.9090000       2.7225000      0.14950000       343.91300       2.1318042     0.018428068
       1724.0000       292.60367       98570.453       13938.572       1.9527500       1.3742500      0.29150000       344.22000       2.2397019     0.016437489
       1729.0000       292.65260       98580.009       14001.857       3.0717500       2.6987500     0.023750000       343.77900       2.3826652     0.016865836
       1734.0000       292.66476       98587.397       14013.726       2.7890000       1.4997500      0.57125000       344.43500       2.6145248     0.017109815
       1739.0000       292.59275       98603.784       13914.103       3.0810000       2.2200000     -0.49525000       343.64800       4.5468889     0.017321213
       1744.0000       292.59018       98609.413       13879.136       3.2872500       1.6827500      0.69975000       344.15300       3.2938500     0.016143889
       1749.0000       292.66470       98609.921       13867.582       3.0217500     -0.43925000      0.34700000       343.31800       4.2636619     0.017269368
       1754.0000       292.65773       98605.514       13833.893       2.3410000       1.2467500     -0.33325000       343.22300       4.4381394     0.018007740
       1759.0000       292.63160       98585.520       13820.559       3.2237500      0.77600000     -0.49125000       343.64500       3.9800722     0.016780271
       1764.0000       292.59433       98582.077       13769.920       2.5957500     -0.14850000    -0.081250000       344.11600       3.6664840     0.019806166
       1769.0000       292.44551       98581.551       13638.107       4.0517500       1.5765000      0.38600000       344.09000       3.3466500     0.016264279
       1775.0000       292.42235       98585.266       13599.212       5.5150000       2.8407500      0.69475000       344.14500       3.1025675     0.016958081
       1780.0000       292.47446       98605.364       13583.697       2.9942500       2.2600000     -0.87050000       344.72800       3.0293600     0.014824593
       1785.0000       292.51744       98609.960       13613.842       3.4690000       1.1305000      0.81150000       345.34100       3.0953438     0.017614109
       1790.0000       292.63147       98609.437       13739.192       4.4965000       1.8495000      0.26200000       344.20000       2.9607403     0.016853591
       1795.0000       292.69560       98604.054       13810.411       3.0585000      0.57050000    -0.084000010       344.87900       2.5907410     0.016142546
       1800.0000       292.75303       98586.601       13879.901       1.8680000       2.5557500      0.44250000       344.22400       3.4360045     0.015278675
       1805.0000       292.77026       98580.908       13941.075       3.4905000       2.0727500     -0.17450000       344.16800       3.8905733     0.018932812
       1810.0000       292.79138       98571.227       14014.653       3.5165000       1.6167500      0.85825000       344.14200       2.8889345     0.016429193
       1815.0000       292.73726       98573.865       14030.425       3.5477500       3.8480000      0.20650000       343.73200       3.7684560     0.014965170
       1820.0000       292.60113       98593.560       14021.220       3.0582500       1.3660000     -0.46700000       343.18200       3.6663395     0.020934639
       1825.0000       292.49443       98599.285       13987.863       3.0602500       2.3770000     -0.20050000       343.21000       5.0960512     0.017373956
       1830.0000       292.30928       98609.060       13879.618       4.4110000       1.1605000     -0.25250000       342.98000       4.2995159     0.017456151
       1835.0000       292.24392       98606.372       13836.220       3.8525000      0.97300000     0.067000000       343.39800       3.1035938     0.014977587
       1840.0000       292.22153       98587.548       13805.245       3.9940000       2.0912500     -0.15450000       343.21600       2.6770896     0.015310517
       1845.0000       292.24592       98580.157       13785.900       3.2807500       1.9425000    -0.018500000       343.51200       3.1827693     0.015878209
       1850.0000       292.37217       98567.258       13799.269       2.7590000       2.3240000      0.38900000       343.76700       2.8977387     0.018094486
       1855.0000       292.44167       98568.014       13795.048       1.4442500       1.6977500      0.51150000       343.93700       2.9908468     0.020819152
       1860.0000       292.56338       98581.730       13790.657       3.6565000       3.8422500     -0.69175000       342.80000       2.3064199     0.017947424
       1866.0000       292.57455       98591.225       13778.605       2.0647500       3.2095000      -1.0585000       343.52700       2.0408750     0.013916334
       1871.0000       292.51029       98609.053       13758.873       2.7835000       1.9670000     -0.47600000       343.22900       1.9363906     0.013950051
       1876.0000       292.48144       98606.886       13760.557       3.4062500       2.6910000     -0.22600000       342.72700       2.0281626     0.014244996
       1881.0000       292.39327       98591.773       13766.297       2.8632500       2.7260000     -0.24750000       343.25700       2.0028429     0.014834025
       1886.0000       292.37065       98584.859       13777.026       1.3212500       2.0912500     -0.29175000       344.18600       2.2942420     0.013576280
       1891.0000       292.40877       98566.322       13809.427       2.5210000       1.8265000      0.75525000       344.40800       2.0630110     0.015118373
       1896.0000       292.38998       98567.504       13820.023       1.6935000       3.3565000      0.11025000       343.97000       1.9398966     0.018466502
       1901.0000       292.37242       98584.190       13835.699       4.1507500       2.1522500      0.58400010       344.13600       2.0301894     0.020372305
       1906.0000       292.31561       98590.176       13810.537       3.6187500       2.3280000     -0.18300000       343.65700       2.4451258     0.014791237
       1911.0000       292.20719       98603.319       13757.855       4.1747500       1.1975000     -0.12400000       343.90000       2.2905330     0.014930146
       1916.0000       292.15563       98602.997       13719.267       4.2202500       2.7407500      0.15000000       343.13000       2.2029874     0.017501995
       1921.0000       292.09494       98592.048       13647.225       3.1677500      0.52375000    -0.025000000       343.90600       4.3310488     0.016632675
       1926.0000       292.07214       98586.198       13621.831       1.7192500      0.95950010      0.80525000       344.89400       3.9861158     0.017215713
       1931.0000       292.10894       98572.295       13637.355       3.1125000      0.21750000     0.080250000       343.98100       2.8894561     0.015893451
       1936.0000       292.09039       98573.606       13611.726       2.8465000     -0.42275000     -0.23975000       343.83100       3.4150168     0.016552435
       1941.0000       292.05422       98583.941       13575.477       4.7030000     -0.70000000   -0.0070000000       343.67600       3.2502532     0.019082950
       1946.0000       292.03442       98588.820       13557.504       4.4357500       1.1780000     0.090250010       343.68200       2.6771233     0.014084041
       1951.0000       291.99734       98603.341       13519.099       3.6435000       1.7240000      -1.0672500       343.28900       3.0758212     0.014144141
       1957.0000       291.98575       98602.139       13523.241       3.8655000    -0.093750010     -0.41025000       343.57200       2.7580405     0.014947910
       1962.0000       291.99437       98590.932       13555.703       3.1960000      0.57325010      0.37425000       344.06500       3.0258446     0.021958296
       1967.0000       292.03067       98578.721       13621.385       3.2970000       1.0522500     0.028500000       344.26300       3.0604134     0.017215399
       1972.0000       292.05094       98573.282       13667.184       2.7110000       1.2377500   0.00025000000       343.76800       3.3429513     0.014339552
       1977.0000       292.11566       98570.314       13743.946       2.8897500       1.1760000      0.99350010       344.05500       2.9115433     0.015071974
       1982.0000       292.11917       98572.878       13780.173       4.4332500       2.6407500    -0.034250000       343.22700       3.8913853     0.015439633
       1987.0000       292.07002       98592.333       13787.317       3.7527500       1.2000000     -0.17400000       343.41400       3.3052394     0.013514182
       1992.0000       292.01303       98597.825       13769.003       2.1775000      0.55275010      0.75025000       343.77900       3.8502213     0.014814529
       1997.0000       291.93146       98598.386       13724.349       2.3170000      0.55525000      0.98550000       344.01100       4.8423305     0.015393821
       2002.0000       291.78348       98599.721       13631.586       4.3427500       1.3092500     -0.63125000       343.23500       4.3168802     0.016127225
       2007.0000       291.74752       98589.885       13606.735       3.1207500       2.3310000    -0.099750000       343.21400       3.8344648     0.014822067
       2012.0000       291.73808       98561.874       13584.776       3.0975000       1.3980000    -0.036750000       343.09200       3.8466703     0.013927846
       2017.0000       291.76985       98560.939       13570.334       4.2895000       1.2920000     -0.28800000       343.13000       2.9585657     0.015558740
       2022.0000       291.79991       98562.227       13564.695       2.4022500       1.1187500      0.16625000       343.81600       3.4802187     0.014453649
       2027.0000       291.82998       98585.047       13537.198       2.2940000      0.61275010     -0.42000000       343.82600       6.0395162     0.020956851
       2032.0000       291.84979       98593.661       13518.511       3.2445000       1.2382500     -0.13150000       343.64700       4.1558386     0.014855042
       2037.0000       291.86966       98596.108       13511.734       2.5332500      0.41225000     -0.28475000       343.82200       2.9862720     0.018931931
       2043.0000       291.90909       98591.889       13535.955       5.0145000       2.1705000     -0.27625000       342.92600       3.2504940     0.016213913
       2048.0000       291.89946       98574.644       13521.671       4.6530000       2.6982500    -0.011000000       343.13500       2.3465049     0.015533290
       2053.0000       291.89919       98572.309       13532.341       3.0815000      0.90525010      0.51775000       343.16500       3.5569503     0.017903685
       2058.0000       291.92850       98580.194       13578.041       3.8680000      0.85675000     -0.20675000       343.39100       3.0074359     0.016723385
       2063.0000       291.90639       98585.452       13598.378       2.4232500      0.95600000      0.32750000       343.73400       6.4578134     0.019664117
       2068.0000       291.84572       98605.130       13628.734       2.5750000      0.39650000     0.010250000       343.66200       3.8679777     0.017114845
       2073.0000       291.79460       98609.241       13634.215       3.9012500       1.6715000     -0.57225000       343.21000       6.6504669     0.016599564
       2078.0000       291.65725       98603.431       13579.190       3.7687500       1.5055000      0.38725000       343.36200       3.5735577     0.014586691
       2083.0000       291.62229       98596.025       13578.542       3.8675000       1.8545000     -0.42725000       343.34300       2.6971247     0.015506819
       2088.0000       291.66135       98565.795       13597.933       3.7222500       2.1170000     -0.28750000       342.94500       3.0413294     0.014610108
       2093.0000       291.69404       98559.786       13619.777       2.1490000      0.52550000      0.93975000       343.70700       3.6502601     0.013796010
       2098.0000       291.78544       98570.387       13677.069       2.0502500       1.9842500    -0.092000010       344.13500       6.2533576     0.019474095
       2103.0000       291.86608       98574.765       13728.459       4.3300000    0.0050000000      0.17500000       342.98000       6.0670169     0.017167555
       2108.0000       291.95940       98599.639       13785.182       4.4125000       1.4755000     -0.41475000       342.97400       4.0013578     0.014240077
       2113.0000       292.01885       98605.841       13822.819       4.2582500      0.92475000    -0.010750000       343.22400       3.2528971     0.014011088
       2118.0000       292.06637       98590.094       13836.419       2.8297500      0.82550000     -0.81500010       343.46600       3.6940374     0.019352213
       2123.0000       292.11461       98584.186       13883.881       3.6582500      0.85775010    -0.098750000       342.68200       4.2551172     0.015360186
       2128.0000       292.14788       98568.875       13944.216       3.8135000       1.7700000     -0.68700000       343.13700       3.2174443     0.013939483
       2134.0000       292.15665       98567.269       13997.203       3.1885000     -0.14975000      0.84800000       343.71500       4.2016115     0.014385482
       2139.0000       292.16957       98581.732       14101.248       2.0355000      0.43050000     -0.72550000       343.90800       4.0499233     0.014317715
       2144.0000       292.15203       98587.776       14116.857       2.7110000      0.93575010      0.19000000       343.26900       4.5109416     0.024438908
       2149.0000       292.07879       98602.742       14071.165       4.1942500       1.8310000     -0.13975000       342.93000       5.2792039     0.017212077
       2154.0000       292.02870       98603.564       14012.749       3.1920000       2.1320000     -0.35275000       343.19300       5.5953608     0.019912927
       2159.0000       291.95384       98591.360       13859.367       4.0590000       1.0985000     -0.47225000       343.09300       3.4927283     0.013984878
       2164.0000       291.93181       98582.630       13803.507       2.1417500      0.64225000      0.14750000       343.85900       5.5487505     0.015764004
       2169.0000       291.96912       98557.921       13812.074       4.0525000      0.35900000     -0.20150000       343.44900       3.3855293     0.013773887
       2174.0000       291.94583       98555.979       13754.638       2.9262500      0.21700000      0.48575000       343.17700       3.5335285     0.014442750
       2179.0000       291.90759       98569.800       13696.248       2.0297500      0.71300010      0.62775000       344.16800       4.0339919     0.014317522
       2184.0000       291.89755       98576.551       13660.838       1.8170000       1.1812500    -0.065500010       343.86000       3.9524935     0.018336539
       2189.0000       291.86131       98600.084       13578.620       2.8247500      0.82275000      0.12950000       343.40500       2.9250924     0.019294562
       2194.0000       291.83454       98605.521       13528.770       2.6637500       1.2942500     0.018000000       343.83800       3.7017299     0.016047980
       2199.0000       291.84374       98596.379       13530.534       2.8117500       1.3005000      0.31150000       343.69700       3.5359257     0.017306676
       2204.0000       291.85370       98588.292       13535.023       1.5880000       1.1222500      0.18375000       343.92600       4.0611088     0.021968157
       2209.0000       291.84319       98563.482       13529.414       1.3865000      0.41275000      0.50000000       344.53400       3.9330820     0.014352517
       2214.0000       291.84695       98561.163       13536.875       2.6925000       1.6280000     -0.25525000       342.98900       2.7025558     0.014681854
       2219.0000       291.88172       98570.268       13575.567       1.0315000      0.22700000      0.20500000       344.38400       4.2050001     0.014610103
       2225.0000       291.91762       98576.897       13627.401       2.1955000      0.86675010    -0.081500000       343.92100       3.2578979     0.013965966
       2230.0000       291.94258       98602.925       13661.316       3.7422500      0.36150000     -0.33350000       342.95200       2.5081961     0.012967078
       2235.0000       291.96289       98604.890       13717.712       3.2275000       1.4515000      0.46925000       343.22500       2.5453865     0.013639176
       2240.0000       291.99977       98587.466       13820.699       2.2907500       1.4072500    -0.022750000       343.42200       3.1853932     0.015302336
       2245.0000       292.01362       98581.444       13877.845       3.2905000       1.3902500   -0.0072500000       343.42000       2.0216715     0.015082895
       2250.0000       292.00049       98567.016       13928.362       1.8665000       1.0632500     -0.17325000       344.12900       2.1821885     0.012857830
       2255.0000       292.00072       98567.772       13952.253       3.0395000       1.9232500    -0.046500000       344.03900       3.7023275     0.017780804
       2260.0000       291.98857       98582.993       13932.647       2.4455000       2.2257500     0.064250000       343.00500       4.7022240     0.015193352
       2265.0000       292.00459       98588.978       13944.039       2.0020000       1.9647500      0.53750000       344.11300       5.9061590     0.016081241
       2270.0000       292.05334       98603.474       13970.417       1.8230000       1.8275000     -0.26875000       343.09300       4.0992365     0.014818160
       2275.0000       292.05731       98602.612       13955.158       2.4850000       1.7557500      0.21650000       343.60700       2.3076341     0.019115826
       2280.0000       292.06787       98589.854       13945.237       4.0177500      0.88675000      0.50225000       343.38400       2.4369831     0.015095569
       2285.0000       292.04540       98580.543       13894.988       4.3710000       1.7355000      0.21525000       343.27400       3.6650133     0.014934716
       2290.0000       291.93549       98561.878       13749.935       3.1427500       1.9492500     -0.87950000       342.86900       3.5885356     0.013170586
       2295.0000       291.93367       98553.710       13714.625       3.1717500       1.7110000     0.048500000       343.58400       3.3772455     0.014291750
       2300.0000       291.97356       98548.308       13706.661       3.1422500      0.79675000     -0.74825000       343.03600       4.7289937     0.014494468
       2305.0000       292.01563       98548.808       13725.404       2.5265000      0.78350000     -0.18550000       343.57000       4.6597352     0.015861493
       2310.0000       292.15170       98560.950       13845.510       1.8952500       1.6182500     -0.25800000       343.21400       5.1441598     0.014883841
       2316.0000       292.18416       98561.548       13872.676       2.3975000     -0.24400000      0.54725000       343.85500       5.4214331     0.016110213
       2321.0000       292.16558       98559.946       13867.655       2.7102500      0.87350000      0.22500000       343.73000       5.2837464     0.015508560
       2326.0000       292.13807       98562.053       13854.516       2.8017500      0.98400000     -0.20700000       342.98400       3.3511830     0.013951485
       2331.0000       292.05035       98556.403       13788.005       2.6097500       2.4467500     -0.28375000       343.98900       4.0814677     0.015044612
       2336.0000       292.01929       98563.751       13777.454       2.0815000      0.72375010      0.56050000       344.19200       5.7154006     0.015759088
       2341.0000       291.98806       98586.488       13787.995       3.3030000       2.2515000     -0.50675000       343.09900       3.8954365     0.017693625
       2346.0000       291.99566       98590.873       13791.103       2.0770000       2.7235000     -0.27800000       342.85300       4.3863453     0.017538969
       2351.0000       292.05441       98594.956       13823.519       2.6560000       2.3397500     -0.64900000       343.60000       4.2968100     0.015907806
       2356.0000       292.05548       98588.898       13803.973       2.2375000       2.2555000     -0.62375000       342.89700       3.7244411     0.015664385
       2361.0000       292.04873       98563.234       13747.236       1.2435000       1.3785000     -0.16600000       343.84400       4.4657085     0.016320215
       2366.0000       292.05865       98560.552       13732.573       3.0870000       1.3527500     -0.64800000       343.68400       2.1770955     0.017996830
       2371.0000       292.06154       98561.526       13730.471       1.8620000       1.2570000      0.33725000       344.53900       1.9890567     0.020209280
       2376.0000       292.03273       98567.910       13677.646       2.1895000      0.92925010      0.21100000       344.32500       3.0270540     0.015908426
       2381.0000       292.00119       98592.441       13609.510       2.1772500      0.35500000      0.12725000       344.44800       3.3196439     0.017303913
       2386.0000       291.99141       98596.160       13584.040       2.6115000      0.65800010     -0.10250000       343.89500       5.1688907     0.016974459
       2391.0000       291.94035       98594.441       13517.110       3.1012500       2.0815000      0.37475000       343.85600       3.3678976     0.015096083
       2396.0000       291.93792       98587.158       13514.593       4.0720000       1.5290000     -0.90500000       342.82600       3.0577449     0.016840820
       2401.0000       291.97493       98563.299       13583.316       4.0882500      0.70625000     0.078500000       343.22400       3.3648168     0.015622076
       2407.0000       292.05969       98561.000       13653.862       3.0705000      0.46375000     -0.20175000       343.30000       2.7760418     0.016554905
       2412.0000       292.14421       98562.336       13715.821       1.8227500      0.49225000     -0.79250000       343.62200       3.8966130     0.016339610
       2417.0000       292.27146       98586.404       13778.286       2.2345000       1.6845000    -0.068000000       343.02400       3.5493107     0.018527011
       2422.0000       292.36475       98594.304       13864.690       1.9570000       1.4705000      0.26150000       343.09600       3.5268282     0.016651820
       2427.0000       292.41595       98591.489       13974.174       1.8782500      0.66000000      0.31125000       344.51500       3.9032255     0.015204448
       2432.0000       292.45683       98588.049       14051.997       1.8030000       1.5652500     -0.56150000       343.59000       2.5747391     0.015949751
       2437.0000       292.47023       98561.220       14160.390       1.5647500      0.92650000    -0.013250000       343.87500       3.3519267     0.018736246
       2442.0000       292.50007       98555.204       14230.829       1.5700000       1.8232500     -0.48300000       343.47800       2.5978898     0.023461133
       2447.0000       292.52986       98559.020       14268.209       1.7400000       1.5645000     0.037250000       343.84400       2.5010163     0.013598703
       2452.0000       292.54232       98574.729       14255.961       1.9620000       2.1762500     -0.65325000       344.12600       3.2132548     0.014985568
       2457.0000       292.58409       98578.776       14237.193       2.1112500       1.7475000      0.27575000       344.74100       2.6999616     0.017591828
       2462.0000       292.64367       98595.185       14192.072       2.2145000       1.8230000      0.15250000       344.34500       2.0066238     0.013349726
       2467.0000       292.73095       98571.187       14144.251       1.7940000       1.2487500     -0.39950000       343.92600       1.9918966     0.017272185
       2472.0000       292.80150       98562.517       14117.329       2.1615000       2.1967500     -0.25125000       343.22700       3.0983484     0.016318929
       2477.0000       292.90061       98556.408       14131.864       2.3852500      0.91950010     -0.18225000       344.82900       2.6250082     0.014917375
       2482.0000       292.96253       98556.746       14129.930       2.6632500      0.55775000     -0.49725000       344.02300       2.2856084     0.017864309
       2487.0000       292.99986       98564.472       14125.669       1.5600000      0.56825000    -0.036750000       344.96600       4.2466962     0.016767597
       2492.0000       293.01318       98587.596       14123.580       2.6342500      0.68950000     -0.26325000       343.40000       3.0727211     0.019418025
       2498.0000       292.96618       98594.617       14098.232       2.8780000      0.82100000      0.36400000       344.29600       3.1706889     0.017625516
       2503.0000       292.94619       98592.817       14096.240       3.3247500       1.2055000     -0.52400000       343.60400       5.2695150     0.017030168
       2508.0000       292.90954       98564.638       14120.894       1.6470000       1.0327500      0.39675000       344.37100       2.9019326     0.014066266
       2513.0000       292.89060       98560.337       14122.677       1.5740000     -0.44325000     0.089000000       345.48400       3.4221647     0.016274189
       2518.0000       292.88592       98570.375       14129.971       2.0002500       1.7447500     -0.65650000       344.37000       3.2022036     0.015903652
       2523.0000       292.89731       98574.800       14122.543       2.0382500       3.6540000     -0.58250000       343.53800       3.9956452     0.020337698
       2528.0000       292.91995       98599.550       14091.550       4.3505000       1.4082500     -0.21050000       344.34300       2.2492603     0.013041005
       2533.0000       292.95101       98605.479       14059.202       2.6837500       1.5232500     -0.75950000       344.23300       2.4220643     0.013697307
       2538.0000       293.02340       98590.293       14028.168       3.0287500      0.67450000      0.62475000       344.20600       2.3976572     0.015757406
       2543.0000       293.06212       98584.242       13980.743       5.2162500      0.69525000     -0.19400000       343.32900       3.8622725     0.018150699
       2548.0000       293.13181       98569.179       13907.510       5.3387500      0.24225000     -0.11000000       343.60100       3.4026537     0.018736968
       2553.0000       293.11683       98566.927       13847.880       4.2200000       1.5867500     -0.53850000       343.51000       3.1653160     0.014684449
       2558.0000       293.01044       98583.486       13783.724       3.9882500       1.3397500      0.17150000       343.95100       4.4587936     0.018807807
       2563.0000       292.93881       98587.338       13725.100       2.9072500       1.4930000     -0.48675000       343.83700       5.6574068     0.019614084
       2568.0000       292.82306       98594.957       13695.362       3.5645000       1.1920000     -0.26825000       343.32700       5.0500129     0.022081119
       2573.0000       292.72506       98593.261       13632.193       2.7960000       2.4855000      0.60125010       344.09100       3.0057740     0.015709748
       2578.0000       292.62879       98568.140       13523.074       4.4175000       2.6450000      0.58050000       343.69600       4.6639265     0.019837010
       2583.0000       292.58173       98561.978       13462.040       6.6097500       3.6552500      0.39825000       344.03900       2.9460324     0.015341138
       2589.0000       292.57434       98560.670       13394.475       5.3722500       1.6122500     -0.29425000       343.77600       3.3148657     0.015019228
       2594.0000       292.53403       98564.569       13354.502       3.4217500       2.1120000      0.35025000       344.04400       3.2944702     0.017856366
       2599.0000       292.51818       98590.479       13363.610       4.2445000       2.1495000     -0.37350000       343.01400       3.9473311     0.032815333
       2604.0000       292.49450       98595.328       13351.823       3.6815000       2.2190000     -0.24775000       342.83900       2.7455848     0.015936265
       2609.0000       292.42258       98590.526       13324.828       2.4070000       1.3915000     -0.32750000       343.71400       4.4826766     0.015647623
       2614.0000       292.37691       98585.037       13310.765       2.2187500       1.6755000      0.10300000       343.16600       4.2684899     0.018484718
       2619.0000       292.37525       98557.768       13305.204       1.6760000       1.9725000     -0.13075000       343.53100       3.1515212     0.016930366
       2624.0000       292.34200       98555.726       13300.181       2.0057500       1.3790000      0.39900000       344.21200       2.5109133     0.013679944
       2629.0000       292.28181       98572.502       13306.338      0.18375000       1.1450000      0.85675000       344.44500       3.8810061     0.017859965
       2634.0000       292.23177       98576.506       13296.594       3.2825000       1.8922500     -0.25325000       342.95800       4.6069193     0.015142833
       2639.0000       292.18067       98593.723       13274.845       1.1742500       2.0422500     -0.74125000       342.90700       2.9681534     0.021827290
       2644.0000       292.13052       98593.758       13265.066       2.3590000       1.3257500      0.17075000       343.21800       2.7592662     0.015458798
       2649.0000       292.07952       98567.101       13255.754       1.7222500       1.8122500     -0.16725000       343.75100       2.4762677     0.017326312
       2654.0000       292.02955       98560.493       13239.909       1.5745000       1.5247500    -0.095500010       343.58200       2.0826301     0.012663917
       2659.0000       291.94080       98558.073       13201.798       1.9785000       1.5165000     -0.38050000       343.74100       2.0526815     0.013500141
       2664.0000       291.93206       98558.582       13216.544       2.8417500       1.5470000     -0.25075000       343.48500       1.9077823     0.020793965
       2669.0000       291.97952       98574.339       13263.750       1.8887500       1.9710000      0.30475000       343.03400       2.4051582     0.014176512
       2675.0000       292.01023       98578.538       13294.354       1.6377500       1.9552500     -0.44150000       343.73800       2.7113998     0.015742949
       2680.0000       292.07657       98579.418       13344.853       2.9112500       2.6752500     -0.26800000       343.79400       1.9310580     0.020385830
       2685.0000       292.13733       98573.927       13399.358       2.6827500      0.51100000      0.32175000       343.35700       5.0462801     0.016280405
       2690.0000       292.18582       98552.996       13435.310       2.5312500       2.2982500     0.034250000       343.01900       2.2328531     0.014655743
       2695.0000       292.22597       98552.077       13478.471      0.70800000       2.5042500     -0.21700000       342.99600       5.8833070     0.019716901
       2700.0000       292.28804       98557.325       13549.161       2.3927500       2.2362500    -0.019750000       343.54900       2.8927356     0.013159644
       2705.0000       292.33149       98561.191       13613.223       2.5945000       3.3895000     -0.11975000       343.00700       3.3587347     0.014440010
       2710.0000       292.36481       98583.458       13689.816       1.5227500       2.1592500    -0.020500000       343.56300       2.5187982     0.014832261
       2715.0000       292.35279       98584.183       13700.407       2.1422500      0.77850000     -0.33775000       343.83300       2.6578904     0.019373658
       2720.0000       292.31750       98565.647       13703.653       3.2187500       1.3387500     -0.55600010       343.21400       3.6187148     0.017714302
       2725.0000       292.29098       98562.869       13673.922       2.5190000       1.0065000      0.22225000       343.05200       4.8638684     0.022810626
       2730.0000       292.19153       98555.806       13542.125       2.8315000       1.2837500     -0.62775000       343.22900       4.4446197     0.017650849
       2735.0000       292.18007       98560.580       13498.803       2.1027500      0.90925000    -0.033750000       343.57000       8.6344368     0.018803134
       2740.0000       292.23148       98588.588       13489.166       3.3000000       1.0755000     -0.50350000       343.53400       3.8987848     0.014260191
       2745.0000       292.26763       98589.397       13482.013       3.1957500       1.2702500     -0.53425000       343.06100       2.5248318     0.016163273
       2750.0000       292.32975       98579.142       13508.093       3.3325000      0.91325000    -0.089500000       343.58600       2.9736281     0.018257003
       2755.0000       292.37918       98573.378       13512.814       3.5550000       2.1547500     -0.20675000       343.74800       3.8613260     0.016698527
       2760.0000       292.45223       98544.866       13522.764       3.8587500       1.8212500    -0.028750000       343.98800       3.5673675     0.017594188
       2766.0000       292.46987       98548.180       13514.372       2.9972500       1.8485000      -1.2015000       343.31900       4.9776112     0.016455523
       2771.0000       292.47360       98575.821       13495.629       1.4697500       2.3867500      0.12450000       343.54500       4.5625229     0.019308108
       2776.0000       292.42677       98580.139       13476.043       2.3017500       2.2957500      0.17200000       343.80900       3.4511453     0.019159429
       2781.0000       292.30305       98590.698       13440.181      0.79750000       1.8782500      0.55200000       344.42000       5.5609567     0.015745174
       2786.0000       292.25182       98584.805       13430.115       1.9035000       1.7790000      0.42875000       344.32500       4.4952799     0.015805016
       2791.0000       292.19414       98551.818       13431.026       1.5787500       1.2012500      0.45350000       344.67500       2.4137588     0.014484707
       2796.0000       292.17218       98549.943       13425.619       2.5662500       2.5272500     -0.17100000       344.14800       1.9720956     0.013327047
       2801.0000       292.19129       98557.759       13428.804       1.6312500       1.8457500     -0.17150000       344.00700       2.0824508     0.014005720
       2806.0000       292.20983       98562.305       13433.472      0.98925010       1.4972500      0.43650000       344.01000       2.0763249     0.014928913
       2811.0000       292.20742       98584.190       13395.840       1.4997500       1.2922500     -0.24175000       344.38800       1.9629042     0.015624368
       2816.0000       292.30331       98582.911       13474.303       1.9130000       2.5080000     -0.62150000       344.38200       2.1269072     0.014650172
       2821.0000       292.47742       98564.566       13628.718       3.5977500       2.1427500     -0.60900000       343.64500       2.0230444     0.017701976
       2826.0000       292.58771       98562.229       13728.270       1.9495000       2.0310000     -0.37425000       344.15900       2.0263950     0.014640495
       2831.0000       292.75984       98557.696       13896.644      0.87950000       2.1420000     -0.11200000       344.21400       2.0151216     0.015025696
       2836.0000       292.82558       98560.112       13972.751       1.3530000       1.0480000     -0.11900000       344.28900       2.0092202     0.013070672
       2841.0000       292.79374       98578.238       13952.683       4.7755000       2.5162500      0.55250000       344.05500       1.9760125     0.013285527
       2846.0000       292.82331       98576.882       14010.866      0.32350000       1.8870000    -0.089250010       343.49200       1.9826222     0.014194438
       2851.0000       292.82605       98567.008       14079.945       1.4355000       1.6575000      0.61350010       345.11900       2.0168254     0.014962979
       2857.0000       292.89871       98560.867       14165.467       2.9590000       4.7032500     -0.12500000       343.44400       2.0591530     0.013765413
       2862.0000       293.00559       98545.398       14279.342       2.9995000       3.9612500      -1.1862500       343.65700       2.0432724     0.013170743
       2867.0000       293.05549       98568.560       14280.752       4.4920000       1.4845000      0.42175000       344.36800       1.9617648     0.014761300
       2872.0000       293.10704       98576.979       14264.796       5.2717500       2.9760000     -0.61950000       343.13400       2.0907934     0.016032758
       2877.0000       293.10052       98586.926       14147.084       3.9662500       2.0192500      0.39600000       344.13600       2.0274072     0.013449074
       2882.0000       293.13797       98593.417       14085.406       2.8125000       3.0617500     -0.25575000       343.16700       2.0579337     0.013858307
       2887.0000       293.24525       98580.366       14051.733       3.3040000       4.0987500     -0.70425000       343.39000       1.8603013     0.022339286
       2892.0000       293.30623       98577.921       14015.455       1.2327500       2.0442500      0.32800000       344.34600       2.0447812     0.014127475
       2897.0000       293.35491       98580.392       13991.508       2.3220000       3.1670000      0.19400000       343.57100       2.0613407     0.014140301
       2902.0000       293.41894       98591.508       14006.088       2.7222500       2.4862500      0.59475000       344.48600       2.0641960     0.016450071
       2907.0000       293.41467       98591.280       13966.700       2.8345000       3.4415000      0.63150000       344.22500       1.9896768     0.014240965
       2912.0000       293.35665       98593.044       13901.509       3.4757500       3.8905000      0.33275000       343.92400       2.0208286     0.014376735
       2917.0000       293.31412       98571.071       13872.889       3.5302500       3.6915000     0.041000000       343.34000       2.0639593     0.014485725
       2922.0000       293.25514       98562.341       13831.408       2.9735000       3.4467500     -0.79500000       344.05300       2.0433516     0.014127382
       2927.0000       293.19922       98559.249       13822.404       1.8935000       3.6222500     -0.67750000       343.85700       2.0223033     0.014639698
       2932.0000       293.11215       98557.767       13776.507      0.46425000       2.2660000      0.82450000       343.79300       2.1056525     0.018477878
       2937.0000       293.00045       98561.216       13705.739       2.9792500       4.4822500      0.18575000       343.46800       2.0906168     0.016051694
       2942.0000       292.83968       98578.194       13598.039      0.89200000       1.7230000       1.3380000       345.08700       1.9018723     0.020513914
       2948.0000       292.71651       98569.084       13456.119       1.8257500      0.68950000       1.2870000       344.96500       2.0623816     0.016334493
       2953.0000       292.67154       98564.986       13396.372     0.077750000       3.1090000     -0.81650010       343.53400       1.9260896     0.014271447
       2958.0000       292.74937       98546.128       13399.831       1.4325000       4.2215000      0.23650000       343.84800       2.0746043     0.016215322
       2963.0000       292.75861       98546.035       13375.818       1.3457500      0.88150010     -0.25050000       343.73400       1.8735837     0.020701555
       2968.0000       292.74219       98571.509       13360.109       1.4615000       2.7247500     -0.19850000       343.79800       1.9355563     0.014545547
       2973.0000       292.75211       98577.988       13365.859       2.3857500       1.3027500     -0.39050000       344.30900       2.0643692     0.015650799
       2978.0000       292.77241       98588.129       13368.746       1.7070000       2.2470000    -0.040750000       343.59300       2.0813779     0.017162982
       2983.0000       292.75138       98589.335       13374.053       3.7475000       2.7840000     -0.19825000       342.88400       2.1632864     0.021155396
       2988.0000       292.75367       98559.293       13428.144       1.9750000       2.1357500     0.028750000       343.80500       2.0400213     0.014160077
       2993.0000       292.70976       98555.320       13445.341       1.5192500       1.4400000    -0.010500000       343.60500       2.0345929     0.014883108
       2998.0000       292.56737       98572.199       13430.282       2.1500000       1.4252500     0.043500000       344.42400       2.1492003     0.020001067
       3003.0000       292.47830       98576.229       13416.233       2.7985000       2.1780000     -0.31425000       343.54900       2.0129024     0.013687154
       3008.0000       292.35703       98592.774       13353.606       4.2197500       3.4975000     -0.61000000       342.97200       2.1377290     0.017416509
       3013.0000       292.32097       98594.903       13356.601       3.4587500       2.1507500     -0.40950000       343.74800       2.0038526     0.013837838
       3018.0000       292.39168       98564.885       13427.687       4.3460000       3.8815000      0.62375000       343.36300       1.9649519     0.014330916
       3023.0000       292.40137       98560.844       13442.783       1.9175000       3.5222500    -0.072000000       343.93200       1.9881325     0.016675646
       3028.0000       292.43258       98572.591       13469.046       2.5750000       4.5562500     -0.66450010       343.21600       2.0476378     0.015520132
       3033.0000       292.46103       98574.676       13489.967       1.4530000       3.1145000     -0.43200000       343.35500       2.0067213     0.012427986
       3039.0000       292.43106       98595.114       13446.228       1.6260000       2.6290000     -0.11300000       343.43500       2.0214621     0.014170071
       3044.0000       292.44903       98593.745       13446.703      0.32400000       2.6602500      0.53575000       344.25100       2.1124030     0.018556710
       3049.0000       292.50853       98560.427       13475.119       1.0487500       1.8915000    -0.088500000       343.79300       2.0613550     0.014919763
       3054.0000       292.57245       98554.516       13520.265       1.8105000       2.2372500     -0.21825000       343.53000       2.0606142     0.016727077
       3059.0000       292.67226       98555.104       13593.868       1.3097500       2.4840000      0.60600000       343.87800       1.9816037     0.012246541
       3064.0000       292.72812       98559.463       13644.824       1.3170000      0.98525010      0.46850000       343.81100       2.0193788     0.012974675
       3069.0000       292.80272       98592.239       13723.870       1.0515000       2.0680000     -0.30425000       343.32100       2.0584625     0.014915596
       3074.0000       292.82159       98595.892       13765.952      0.92100010       2.0985000     0.069500010       344.30500       1.9937128     0.014000944
       3079.0000       292.77656       98576.703       13776.397      0.73925010       2.3577500     0.049000000       343.52700       2.1024250     0.019257907
       3084.0000       292.74278       98574.077       13777.562      0.48200000       1.5167500    -0.020500000       344.15800       2.0887277     0.015248203
       3089.0000       292.69327       98564.487       13781.076      -1.2807500       1.0535000      0.29475000       343.91200       2.0567883     0.015885810
       3094.0000       292.62922       98562.307       13739.592      0.86850010       2.4607500    -0.062250000       344.48400       2.0180053     0.013010257
       3099.0000       292.55387       98582.814       13652.394      0.87950000       3.1700000     -0.21000000       343.72300       2.0211186     0.015726715
       3104.0000       292.47007       98583.756       13574.718      0.81100000       1.8952500      0.82575010       343.80800       2.1112274     0.018268557
       3109.0000       292.32066       98566.285       13439.150       1.2837500       3.0312500      0.58375000       344.20100       2.0405379     0.016295238
       3114.0000       292.26239       98563.061       13373.329       1.9400000       3.8710000      0.50225000       344.08100       2.0305694     0.014825186
