MIRICO/SHELL project - Processed LDS file generated on
Sun Jul 16 15:07:08 2017
Time stamp for record start
05/11/2017  14:23:53.0000
Nb of points in the record
         617
Beam position index
       2.0000000
Beam angle (degrees)
      -8.6230000
Open Path length (m)
       64.850000
****************** Temporal data record ************************
Elapsedtime_sec Temp_K Press_Pa Humidity_ppmv WindX_m/s WindY_m/s WindZ_m/s Speedofsound_m/s CH4vmr_ppmv CH4vmrerror_ppmv  
      0.00000000       291.83509       98612.933       14035.736       3.4595000       1.7750000      0.10900000       343.59800       1.9773674     0.011612843
       5.0000131       291.84755       98618.859       13996.320       2.6517500       2.5370000     0.011000000       344.56500       1.9861889     0.012287132
       9.9999860       291.85084       98628.960       13948.861       2.9930000       4.5947500     -0.62525000       343.51000       1.8693182     0.014426525
       14.999999       291.92481       98634.693       13939.524       2.9752500       2.3357500    -0.025750000       343.10800       1.9403873     0.012279010
       21.000007       292.09454       98634.922       13980.901       1.5782500       1.5902500      0.29650000       344.60400       1.9437966     0.012949727
       26.000020       292.27228       98636.970       14048.655       3.6150000       1.9697500     -0.17200000       343.00200       1.9339589     0.012513600
       30.999993       292.54590       98641.488       14143.479       2.4457500       1.3835000      0.55425000       342.91600       1.8988790     0.010873853
       36.000006       292.66148       98640.790       14226.954       2.3367500       5.2722500     -0.85175000       343.59500       1.9704087     0.010758037
       41.000019       292.82371       98637.348       14384.823       2.7542500       3.3817500     0.044500000       343.74900       1.9318128     0.011868253
       45.999992       292.74929       98631.625       14421.826       2.7900000       4.6235000     -0.46800000       342.55100       1.8400264     0.020334331
       51.000005       292.42123       98621.774       14382.918       2.2697500       3.1420000      0.24225000       343.88700       1.9456096     0.013465755
       56.000018       292.29113       98614.853       14367.752      0.57100000       2.5857500      0.33300000       343.64400       1.9237029     0.013111550
       60.999991       292.05333       98605.139       14295.344       2.9440000       2.1890000      0.58150010       343.57500       1.9498076     0.013271037
       66.000004       292.04397       98600.872       14276.132       1.7790000       2.4322500       1.0335000       343.85900       1.9288758     0.013246146
       71.000017       292.21192       98599.835       14285.234       2.4442500       3.5975000     0.028250000       343.18200       2.0607143     0.015126902
       75.999990       292.32888       98598.630       14280.362       1.8305000       2.7555000      0.38625000       344.07200       1.8864438     0.012877666
       81.000003       292.51565       98599.314       14265.982       2.2317500       3.4025000      0.39175000       344.26200       1.9720747     0.013469787
       86.000016       292.68456       98601.191       14285.150       1.5842500       3.0647500     -0.55925000       343.51200       1.9236150     0.012111249
       90.999989       292.92961       98603.169       14340.087       3.5380000       4.1122500     -0.57800000       342.36300       1.9570323     0.010566250
       96.000002       292.96753       98608.836       14329.550       3.2640000       1.8725000      0.16925000       343.88100       1.9274458     0.012985985
       101.00002       292.94629       98618.878       14313.406       2.6095000       1.2315000      0.81300000       343.68200       1.9409868     0.013764522
       105.99999       292.87525       98625.824       14294.965       2.8047500       2.2912500      0.62025000       343.66900       1.9571403     0.014312343
       112.00000       292.60379       98636.565       14227.624       2.8360000       1.8660000      0.74000000       344.83600       1.9614434     0.012826299
       117.00001       292.44274       98640.367       14162.156       3.7007500       1.7130000     -0.35775000       343.33500       2.0041205     0.019705449
       121.99998       292.29447       98641.412       14113.438       2.8592500       2.6400000     -0.38650000       343.05800       1.9059740     0.012936859
       127.00000       292.12945       98637.188       13997.124       3.7515000       2.2042500     -0.12900000       343.26100       2.0024741     0.015003075
       132.00001       292.02279       98635.159       13908.810       3.3395000       2.6017500     -0.59425000       343.28400       1.9106966     0.013412291
       136.99998       292.01479       98634.836       13833.923       3.6055000       1.2815000     -0.20275000       342.88900       1.8963059     0.011636921
       141.99999       291.99371       98630.970       13785.944       4.2975000       2.0720000     -0.57675000       342.67700       1.9159029     0.012871603
       147.00001       291.98486       98625.853       13757.261       1.7127500       1.1590000      0.70675000       343.58200       1.9659404     0.011264264
       152.00002       292.00047       98621.218       13746.312       2.5282500       1.6055000     -0.65325000       343.45500       1.8898292     0.011580692
       156.99999       292.00059       98615.055       13737.306       2.8545000       2.9137500     -0.37975000       343.46800       1.9528227     0.013604124
       162.00001       291.99419       98603.991       13751.716       5.2575000       3.7402500     -0.31250000       343.13800       1.9600106     0.013685354
       167.00002       292.01567       98600.276       13746.627       3.4845000       1.4555000     0.054500000       343.73500       1.9290679     0.013892762
       171.99999       292.04446       98599.021       13766.320       3.2960000       2.4720000     -0.25100000       343.54500       1.9244803     0.010345346
       177.00001       292.14541       98600.385       13847.619       3.1120000       2.6322500     0.027500000       342.75400       1.9360710     0.014486667
       182.00002       292.16834       98604.108       13881.623       2.6572500       2.4170000     -0.23425000       343.40500       1.9543056     0.014087102
       186.99999       292.11029       98613.311       13860.658       1.1095000       2.7762500       1.2707500       343.69700       1.9985785     0.012989799
       192.00000       292.10046       98620.268       13899.112       1.9750000       2.5427500      0.33050000       342.78100       1.9533182     0.010139601
       197.00002       292.09062       98627.211       13954.359      0.93175010       1.5157500     0.023500000       343.72700       1.9334697     0.010954467
       202.99999       292.03518       98637.525       14012.655       1.3420000       3.1660000     -0.74950000       343.17100       1.9716589    0.0098223300
       208.00000       292.07581       98640.618       14106.023       1.7112500       1.7455000     -0.38225000       343.46600       1.9725217     0.014809863
       213.00001       292.10613       98641.358       14155.307       1.7762500       1.5112500      0.53325000       343.60800       1.9292505    0.0096913218
       217.99998       292.13449       98636.779       14138.116       2.4400000       2.9515000     -0.70600000       343.23100       1.9395490     0.012055720
       223.00000       292.15468       98634.758       14133.174       3.1362500       2.5857500      0.25500000       343.40500       1.9869197     0.012067916
       228.00001       292.20476       98635.486       14138.399       2.9465000       2.8837500     -0.26000000       342.86900       2.0050460     0.014851410
       232.99998       292.21218       98630.233       14123.862       2.1620000       1.2757500      0.31250000       343.32200       1.8890202     0.010807298
       238.00000       292.18119       98623.222       14083.289       2.0035000       2.1320000      0.18525000       344.08800       1.9782142     0.010577972
       243.00001       292.14965       98614.907       14050.500       2.6035000       2.3732500     -0.28750000       342.68300       1.9614366     0.014307705
       247.99998       292.06217       98592.298       13995.121       2.4932500       2.4045000      0.28350000       342.89200       1.9023930     0.010022602
       253.00000       292.03476       98586.077       13971.107       2.0460000       1.9722500    -0.030250000       344.14300       1.9519613    0.0097227524
       258.00001       292.05900       98589.803       13983.344       1.6000000       2.6405000     -0.10350000       342.65400       1.9178660     0.013090096
       262.99998       292.04938       98594.302       13969.305      0.67975000       2.7260000     -0.11650000       343.22400       1.9261437     0.013614874
       267.99999       292.05622       98612.939       13954.240       1.5865000       2.5400000     -0.32000000       342.49500       1.9864025     0.011879048
       273.00001       292.05478       98623.608       13943.021      0.87050000       2.1627500     -0.35450000       342.66100       1.9350262     0.012942639
       278.00002       292.00979       98633.236       13899.646       1.2440000      0.64550000      0.15025000       343.24400       1.9556118     0.012741296
       282.99999       291.99106       98637.877       13887.526       1.3325000       1.9897500    -0.098500010       343.98400       1.9295536     0.012196888
       288.00001       292.00038       98638.963       13905.352      0.70100000       2.1855000      0.55575000       343.89000       1.9144409     0.011913043
       294.00001       292.00052       98635.584       13923.725       1.3182500       2.8577500      0.21275000       343.69400       1.8717833     0.011197666
       298.99999       292.01306       98623.076       13958.973       1.5345000       3.1322500   -0.0072500000       342.57100       1.9421166     0.012925890
       304.00000       291.99932       98617.359       13976.768       1.6385000       2.6200000     -0.22550000       343.51700       1.9938503     0.014094014
       309.00001       291.97472       98615.164       13983.707       2.1552500       2.7322500     -0.32675000       342.72700       1.9742213     0.013960287
       313.99999       291.94120       98607.807       13999.163       2.9525000       3.4150000     -0.52825000       342.84100       1.9478128     0.013548070
       319.00000       291.88008       98596.183       14033.550       3.1397500       2.9432500      0.20950000       342.80900       1.9163024     0.011802836
       324.00001       291.83066       98592.941       14022.096       1.3085000       2.5760000     -0.25775000       343.28200       1.9205935     0.010341880
       328.99999       291.74057       98587.831       13976.198       1.9275000       2.0737500      0.19675000       343.61900       1.9335082    0.0095221268
       334.00000       291.73220       98588.396       13958.077       1.9700000      0.60825000      0.45100000       343.77900       1.9331810     0.012687203
       339.00001       291.79398       98600.419       13929.182      0.84575000       2.4512500     -0.42300000       343.51700       1.9195905     0.013480387
       343.99998       291.80382       98608.459       13889.407       1.7017500       2.3515000     -0.26500000       343.68200       1.9929705     0.010103392
       349.00000       291.85192       98616.245       13856.795       1.8572500       3.0307500     0.018250000       343.55000       1.9650346     0.010042958
       354.00001       291.86460       98623.232       13837.367       1.0777500       3.1980000     -0.56350000       343.45000       2.1827818     0.014972024
       358.99998       291.80494       98634.406       13785.854      0.83350000       1.9420000      0.57000010       343.70200       2.6548888     0.015756979
       364.00000       291.78890       98638.193       13775.574       2.1100000       1.3937500    -0.093500000       344.27400       2.7325207     0.015094373
       369.00001       291.79992       98638.645       13817.103      0.23425000       1.9322500     -0.73925010       343.78200       2.4309745     0.012940132
       373.99998       291.79988       98635.617       13842.760       1.9500000       2.8420000     -0.33775000       343.40500       2.8592171     0.011732739
       379.99999       291.81166       98623.208       13893.090       1.2672500       3.2777500     -0.75875000       342.51000       2.6594616     0.013891930
       385.00000       291.79523       98616.132       13902.941      0.56550000       1.4635000      0.41950000       344.23200       3.0516201     0.012456524
       390.00002       291.71403       98606.358       13867.939       2.0337500       2.9347500      -1.2945000       343.05700       2.2815970     0.013016975
       394.99999       291.75932       98601.609       13911.432      0.79050000       2.5890000     0.059250000       343.17300       2.7505226     0.014903694
       400.00000       291.87100       98600.473       13977.573      0.96450010       1.6435000     -0.37075000       343.17300       2.3291866     0.010748002
       405.00002       291.93709       98599.094       14036.934       3.6322500       1.8260000      -1.4545000       343.25000       2.4577758     0.010913826
       409.99999       292.08572       98599.072       14162.007      0.99625000       2.6707500      0.11325000       344.38800       2.3836499     0.013067905
       415.00000       292.15641       98600.638       14236.960       1.5420000       3.3082500     -0.86625000       343.03500       2.9953888     0.014344699
       420.00002       292.12979       98602.092       14258.712      0.58225000       2.5052500     0.053250000       344.10500       2.6394787     0.010862353
       424.99999       292.16655       98607.415       14317.312       1.7477500       4.1865000     -0.71400000       342.66000       4.7114836     0.014821498
       430.00000       292.24105       98618.689       14411.375       2.7602500       3.3960000     -0.78825000       343.62300       4.0760574     0.012088936
       435.00001       292.27493       98624.128       14453.366       2.4367500       2.7640000     -0.83475010       343.13800       2.3819590     0.010271590
       439.99999       292.31097       98632.363       14493.052      0.91350010       2.6175000      0.28275000       343.38700       3.6436979     0.015010919
       445.00000       292.30879       98631.860       14485.408       1.0502500       3.8815000     -0.50425000       342.91900       3.0148361     0.011261367
       450.00001       292.25772       98625.108       14410.469       1.8060000       2.0760000     -0.29800000       343.15200       2.7942506    0.0098088344
       454.99999       292.23782       98616.248       14377.633      0.71625010       2.5107500      0.15300000       343.43800       2.1958783     0.010711684
       460.00000       292.21199       98597.851       14347.309     -0.80600010       2.1767500      0.94025000       343.95400       3.8759818     0.014209258
       465.00001       292.18230       98589.111       14292.379      0.83400010       1.6592500      0.49375000       343.92200       2.8023354     0.011623674
       471.00002       292.17411       98576.552       14234.777      0.83825000       3.1475000      0.34950000       344.03100       2.6403037     0.013035586
       475.99999       292.11622       98578.886       14161.043       1.2270000       3.0940000      -1.0767500       343.38200       2.6034965     0.012650174
       481.00001       292.02336       98596.693       14044.514      0.78100000       1.1020000       1.0740000       343.25500       3.1751795     0.014736574
       486.00002       291.93425       98597.104       13956.979       2.1365000       1.5700000     -0.30900000       342.77600       2.6900207     0.012119201
       490.99999       291.79963       98595.361       13860.593       2.9507500       3.0182500     -0.43600000       343.18600       3.3889324     0.014973515
       496.00001       291.73666       98596.496       13811.857       2.6975000       3.1285000    -0.075250010       343.48300       3.6540602     0.013064358
       501.00002       291.69393       98587.836       13772.450       2.4660000       2.5497500     -0.13350000       343.65500       2.9265782     0.013802546
       505.99999       291.67147       98590.358       13773.386       2.5212500       2.6207500     -0.16975000       343.50200       2.4026207     0.014326629
       511.00000       291.70086       98606.459       13826.478       2.6757500       1.9607500      0.15925000       343.82800       2.3328012     0.011622392
       516.00002       291.70116       98608.842       13868.059       1.4785000     0.092750010      0.17950000       344.26300       2.4654861     0.013903108
       520.99999       291.70926       98607.568       13942.149       1.9395000       1.4375000     -0.24475000       343.12900       2.3450604    0.0095194049
       526.00000       291.69059       98602.899       13967.149       2.7717500       3.6292500     -0.89050010       343.25800       4.9503122     0.012745100
       531.00002       291.65329       98587.963       13967.565       3.0127500       2.1537500     -0.18325000       342.90800       3.6369569     0.016410349
       535.99999       291.63324       98588.476       14000.167       3.2925000       1.0202500      0.10625000       343.59600       3.0235707     0.013925918
       541.00000       291.61501       98591.766       14039.773       1.8455000      0.40950000      0.59375000       344.12800       2.9189897     0.014578492
       546.00002       291.56684       98599.246       14031.363       1.6642500       2.4927500    -0.037250000       344.06000       2.4966395     0.015252531
       550.99999       291.50826       98620.424       14026.624       2.4120000       1.7217500      0.11250000       343.31900       3.8646195     0.011067771
       556.00000       291.46856       98627.789       14007.529       1.5240000       1.1622500     0.030250000       344.06800       2.6850361     0.014284256
       562.00001       291.38759       98631.572       13919.130       1.6070000      0.92325000      0.19850000       344.01500       3.8461136     0.011975142
       566.99998       291.37030       98633.320       13884.816       1.0260000       1.3902500     0.095750000       344.28400       2.6980828     0.010908272
       572.00000       291.39456       98632.246       13881.000      0.91075000      0.17000000      0.98125000       344.14500       3.4409734     0.015314366
       577.00001       291.43063       98624.015       13848.168      0.77150010       1.3057500      0.89325000       343.46500       4.1128442     0.016069991
       581.99998       291.45102       98616.191       13832.433       2.7130000       2.8722500     -0.76375000       342.93400       3.1548009     0.014858880
       586.99999       291.48539       98595.651       13842.561       2.8210000       1.7137500     -0.18675000       343.98700       2.2735598    0.0098473352
       592.00001       291.50645       98587.097       13852.035       3.0857500       1.8277500     -0.43275000       343.57300       2.4160534     0.013041110
       597.00002       291.51522       98584.709       13866.053       3.4440000       2.6422500     -0.14175000       343.58000       3.4647451     0.014967639
       601.99999       291.50047       98588.458       13886.004       2.3110000       1.9567500     -0.13525000       343.11600       3.5751049     0.012336393
       607.00001       291.50059       98593.061       13905.748       2.2752500       1.6815000     -0.24875000       343.14800       3.4171903     0.014172744
       612.00002       291.49986       98605.335       13925.097       3.1130000      0.76725010     -0.41100000       343.46100       3.0842039     0.010926614
       616.99999       291.50006       98614.959       13973.609       2.9367500       2.5337500     -0.15750000       343.01100       4.1363959     0.015721746
       622.00001       291.50006       98621.195       14006.345       2.7112500       2.9122500      0.12500000       343.08100       2.9719620     0.010422127
       627.00002       291.51513       98631.843       14077.801       1.3320000       2.7200000     -0.19375000       343.25100       4.6230621     0.015128913
       631.99999       291.50635       98633.367       14087.406       2.4097500       2.4167500     -0.30300000       342.71700       2.9851701     0.010433918
       637.00000       291.43995       98624.354       14003.520       2.6812500       1.5270000      0.28025000       343.59000       2.9511098     0.013395305
       642.00002       291.43735       98616.688       13977.635       2.6582500       1.4760000  -0.00075000000       343.37000       2.8310087     0.015121836
       646.99999       291.45939       98606.564       13960.504       2.6767500       2.5542500     -0.18025000       342.50100       2.8004675     0.015467294
       653.00000       291.49072       98586.313       13912.469       2.1017500       1.3885000      0.31400000       343.39900       2.3431567     0.014596458
       658.00001       291.67552       98587.789       14024.911       2.0750000      0.37475000      0.28175000       343.05700       4.3367778     0.012481075
       662.99998       291.73106       98589.198       14058.509       1.8555000       1.9142500     -0.65000000       342.83500       2.9729858     0.011553828
       668.00000       291.71119       98598.901       14060.971       2.9840000       1.8732500     0.010000000       342.83400       3.7880155     0.016037199
       673.00001       291.70871       98606.907       14069.581       2.9457500       1.7100000     -0.23100000       342.75700       5.1880674     0.016804678
       677.99998       291.61891       98619.016       14028.619       2.7672500       1.6115000     -0.14050000       342.66500       2.5510523     0.013952456
       683.00000       291.58159       98622.620       14018.148       1.9920000       2.0265000      0.36725000       343.21900       2.6411191     0.015019878
       688.00001       291.60010       98621.796       14046.166       1.6952500       2.2587500     -0.10850000       343.23700       2.4188617     0.013980010
       692.99998       291.60006       98621.552       14052.185       3.1530000       2.9337500    -0.078500000       343.06800       2.3661859     0.012495319
       698.00000       291.57168       98616.582       14031.599       2.3805000       1.5187500      0.20050000       343.37200       2.8092952     0.012922510
       703.00001       291.59432       98609.407       14047.513      0.77750000       2.3697500      0.34550000       343.41600       2.8634568     0.014267247
       707.99998       291.66965       98599.738       14095.970      0.55925000       1.8412500     -0.28125000       343.47800       3.3050854     0.016388961
       713.00000       291.71017       98593.639       14114.974       1.0767500       1.4585000      0.32275000       343.58300       2.5258394     0.013500052
       718.00001       291.76662       98578.810       14137.341       1.0817500       2.2665000      0.19375000       343.62000       3.8243079     0.012048948
       722.99998       291.81461       98576.616       14163.578       2.5915000       3.9610000     -0.45300000       342.91900       5.5695633     0.019452175
       727.99999       291.83378       98587.689       14173.502       3.1460000       2.9682500     -0.21050000       342.64000       2.2270214     0.010704371
       733.00001       291.85360       98595.885       14176.763       2.1892500       3.0685000    -0.019000000       343.28700       2.5775541     0.013363863
       738.00002       291.87514       98613.955       14177.835       1.7417500       2.1685000      0.48200000       343.18700       3.1319583     0.013476620
       743.99999       291.91107       98625.080       14201.123       2.7860000       1.9300000      0.67225000       343.28800       2.9810771     0.012860445
       749.00000       291.95069       98631.876       14224.530       2.5792500       2.2740000      0.13425000       343.38000       2.3467772     0.013597270
       754.00001       291.95693       98632.465       14230.306       1.1985000       2.2740000      0.32800000       343.34500       3.4662775     0.011502782
       758.99999       291.95659       98626.443       14255.677       2.1795000       2.2650000      0.41725000       343.07900       2.6027984     0.011370643
       764.00000       291.95301       98618.377       14258.852       1.5277500       3.1917500     0.035250000       342.96500       2.3088377     0.013929820
       769.00001       291.93086       98599.706       14241.628      0.68600000       1.6625000      0.32825000       343.02500       3.0137703     0.015341013
       773.99999       291.88751       98590.479       14199.962       2.0000000       4.1442500     -0.57100000       343.02400       3.0731044     0.013840086
       779.00000       291.81209       98577.737       14123.964      0.72975000       2.1897500      0.49275000       343.06400       2.4880300     0.014319411
       784.00001       291.78580       98577.099       14083.029       1.8795000       3.0737500     -0.24600000       343.17900       3.3791243     0.013189312
       788.99999       291.77367       98589.049       14039.396      0.93600000       1.9555000      0.29825000       343.32900       3.4248901     0.012510686
       794.00000       291.73300       98597.821       13984.844      0.64300000      0.80800000    -0.020750000       343.45600       2.9214202     0.014100671
       799.00001       291.70491       98616.593       13931.947      0.92700000       3.7767500      -1.2417500       343.37300       3.6142093     0.012201988
       803.99998       291.69480       98625.532       13913.812       1.0215000       1.5780000      0.47950000       343.63200       2.3332494     0.014726682
       809.00000       291.66112       98629.543       13896.757       2.0487500       1.9447500     -0.20575000       343.40500       3.4335318     0.014370606
       814.00001       291.63531       98632.801       13880.964       1.2750000       2.7140000     0.091750000       343.04700       6.2863962     0.014043833
       818.99998       291.65670       98634.171       13904.509      0.92850010       1.8132500     -0.27425000       343.38800       2.3691838     0.012791500
       824.00000       291.65292       98630.118       13921.791       1.1592500       3.1707500     0.023000000       343.06900       3.1265663     0.013026825
       829.00001       291.61836       98621.832       13924.632      0.92025010      0.59525000      0.44625000       343.61300       3.5774346     0.014362103
       835.00002       291.58221       98610.923       13927.543       2.3352500      0.86025010      0.87325010       343.81100       2.7745058     0.012759303
       839.99999       291.54700       98590.060       13941.281      0.35725000       2.7940000     -0.34800000       343.00600       2.4975850     0.011155179
       845.00000       291.54327       98585.144       13967.033       2.0215000       2.7635000     -0.29675000       343.01000       2.4499835     0.012916092
       850.00002       291.54339       98585.507       13988.928       2.0812500       2.8010000     -0.54750000       342.96200       2.7089929     0.013709948
       854.99999       291.54966       98591.529       14008.672       1.3950000       2.5640000     -0.50850000       343.11200       3.7862847     0.013246493
       860.00000       291.57687       98612.755       14037.598       1.0320000       1.5370000     -0.14575000       343.52500       3.6024850     0.015011866
       865.00002       291.62257       98621.403       14086.801       1.2257500       2.6367500     -0.15875000       343.09600       2.9751180     0.013194132
       869.99999       291.68223       98632.517       14146.193       1.7565000       2.7395000   -0.0022500000       343.22700       3.6938131     0.015754873
       875.00000       291.72230       98633.272       14179.262       1.4087500       2.0095000      0.65050010       343.55500       3.6128442     0.013968014
       880.00001       291.76553       98621.675       14219.058       2.3122500       2.6125000     -0.64475010       343.23200       4.7741961     0.015047263
       884.99999       291.84269       98617.586       14272.491       1.4000000       3.1345000     -0.35750000       343.17600       2.4804510     0.014411594
       890.00000       291.97337       98613.734       14356.642       2.0902500       1.8060000    -0.034500000       343.16700       2.8585736     0.013332434
       895.00001       291.96897       98606.123       14319.163       1.8992500       1.9120000      0.47375000       342.97600       5.4866526     0.014601073
       899.99999       291.92978       98597.628       14247.612       3.3155000       3.5395000     -0.99050000       342.82300       2.4314423     0.010621866
       905.00000       291.89120       98591.658       14164.651       4.2380000       2.5407500      0.21900000       343.29800       2.7526816     0.017423926
       910.00001       291.70378       98578.253       13938.069       2.2047500       3.6235000     -0.51725000       343.04700       4.1302606     0.015055623
       914.99999       291.64888       98577.263       13833.244       2.8915000       2.5837500      0.73850010       343.38100       3.4082792     0.012544361
       920.00000       291.68816       98584.833       13800.793       2.1315000       3.1592500     -0.57275000       342.94700       3.1993532     0.015808360
       926.00001       291.70919       98595.915       13747.192      0.53375000       2.1677500      0.31350000       343.63400       2.3351097     0.010485780
       931.00002       291.75480       98614.692       13724.771      0.86650000       2.1857500     -0.52900000       343.00100       2.9631092     0.012808448
       935.99999       291.75602       98623.028       13681.071       2.3520000       2.8872500      0.14425000       343.19900       2.3568980     0.013510772
       941.00001       291.73859       98632.993       13616.211       1.3770000       1.6187500      0.10100000       343.43500       3.0096595     0.012984761
       946.00002       291.76723       98632.676       13631.795       1.7692500      0.32200000      0.55325000       343.97200       2.4349175     0.012851912
       950.99999       291.78858       98623.716       13674.151       1.3070000       1.9555000     -0.16450000       343.55000       3.3697962     0.015325002
       956.00000       291.81675       98614.116       13712.463      0.94025000       3.3550000     -0.31325000       343.39400       3.9802835     0.013450313
       961.00002       291.87808       98596.174       13799.574      0.80100010       2.8315000     0.083500010       343.50900       3.6498378     0.014671661
       965.99999       291.95726       98587.929       13899.508       1.0862500       1.9430000     -0.15600000       343.85700       2.9117459     0.015909302
       971.00000       292.03848       98577.779       13994.836       1.9442500       1.5205000    -0.083250000       344.20000       3.3292147     0.012501584
       976.00002       292.09878       98578.228       14090.890       3.3982500       2.4145000     -0.34800000       342.96700       2.9893631     0.014223266
       980.99999       292.19266       98587.178       14238.497      0.47150000       2.1552500      0.36050000       343.33700       2.6787207     0.012761279
       986.00000       292.26382       98596.805       14352.144       1.2247500       2.2990000      0.40325000       343.39900       3.0836147     0.014543223
       991.00002       292.29175       98614.679       14443.056       1.9162500       3.4112500    -0.021250000       343.33500       3.2750926     0.014207137
       995.99999       292.33115       98622.797       14496.157       1.6722500       3.6747500     -0.70325010       342.64500       3.0596409     0.013923479
       1001.0000       292.40584       98632.957       14574.856       2.0095000       3.4737500      0.74950000       342.98400       3.2232754     0.014430664
       1006.0000       292.42825       98632.598       14553.420      0.93225000       2.6525000     -0.57075000       343.21100       2.5554765     0.010643188
       1012.0000       292.39344       98622.510       14404.517       1.2422500       2.9490000     0.076500010       343.14800       5.4800025     0.017227145
       1017.0000       292.41488       98612.022       14357.041       1.3405000       3.3382500     -0.26100000       342.68900       3.6644603     0.015200820
       1022.0000       292.45625       98594.049       14300.769       1.2692500       1.9997500     0.082250010       343.30100       3.4630552     0.013631849
       1027.0000       292.45417       98580.467       14277.252      0.72775010       2.1840000    -0.062000000       342.70800       3.2748184     0.013403031
       1032.0000       292.45526       98576.599       14241.181       1.7795000       1.2805000     0.097000000       343.35500       3.3646791     0.012740991
       1037.0000       292.39960       98586.336       14142.370      0.96925000       2.2672500      0.38700000       343.27300       4.0538426     0.012427728
       1042.0000       292.38722       98594.057       14103.972     0.083250000       2.1612500     -0.20225000       343.87600       2.1217769     0.014404033
       1047.0000       292.39943       98604.251       14095.728       3.6997500       1.7912500    -0.055000000       343.18500       3.1308945     0.012028977
       1052.0000       292.44884       98623.317       14119.566       2.7502500       3.4752500    -0.096250010       343.03100       2.6886265     0.012559710
       1057.0000       292.46898       98625.616       14128.912       2.4555000       2.3792500      0.62700000       343.62600       2.6770704     0.013764287
       1062.0000       292.51202       98623.188       14179.226       2.5475000       3.6390000     -0.34000000       342.87700       2.2071046     0.013181379
       1067.0000       292.45502       98605.480       14131.382       2.1555000       2.3795000     -0.47100000       342.99200       4.4459388     0.015415658
       1072.0000       292.44370       98594.227       14131.396       1.5712500      0.99150000      0.15800000       343.62000       3.0745136     0.012935212
       1077.0000       292.43003       98572.711       14157.009       1.2102500       3.6810000     -0.11850000       342.90800       3.4229017     0.010878564
       1082.0000       292.43778       98569.744       14183.411      0.74500010       2.9837500      0.15000000       342.75500       2.8060884     0.012650277
       1087.0000       292.53017       98597.331       14303.892      0.62725000       2.2345000     -0.25400000       342.76600       2.5598652     0.012341316
       1092.0000       292.56265       98602.858       14326.131       2.1840000       2.0847500     -0.20250000       343.08000       2.3584871     0.013900645
       1097.0000       292.57055       98603.468       14297.924      0.69225000       2.2850000      0.36000000       343.02000       2.1653167     0.012361822
       1103.0000       292.55898       98607.309       14208.966      0.72700010       1.7505000      0.72775010       343.56800       2.9355150     0.011280879
       1108.0000       292.47645       98605.153       14062.669       1.1590000       1.4812500    -0.028750000       343.57100       2.6866604     0.010340604
       1113.0000       292.43746       98603.480       13973.055       2.3805000       2.4632500     0.096000000       343.05600       3.0745137     0.012087193
       1118.0000       292.42390       98622.712       13935.881       2.4507500       2.6000000     -0.62075000       343.17700       2.4816598     0.013145498
       1123.0000       292.39389       98624.872       13871.267       2.5567500       1.3745000      0.29425000       342.99600       2.8017267     0.012169588
       1128.0000       292.38024       98602.075       13792.599       2.6365000       2.6390000     0.093000000       343.23500       4.1802956     0.013554154
       1133.0000       292.34934       98592.454       13736.618       1.2195000       1.9567500      0.36325000       343.46500       3.1043034     0.012196863
       1138.0000       292.27680       98580.331       13660.138       2.1540000       2.0990000      0.46475000       343.42000       2.2908070     0.013223955
       1143.0000       292.23847       98577.101       13624.890       2.2505000       3.1550000     -0.43450000       343.28500       2.8988753     0.014279369
       1148.0000       292.19621       98582.876       13626.699       1.7750000       1.5475000      0.95925000       343.99600       2.7174928     0.013394849
       1153.0000       292.18886       98590.322       13639.806       1.6562500       2.2140000     -0.74225000       343.37300       3.9168619     0.015940796
       1158.0000       292.23475       98611.524       13697.806       2.7792500       1.7082500       1.0060000       343.75400       3.6861987     0.014743603
       1163.0000       292.25494       98619.083       13727.623       1.4560000       1.8895000      0.47025000       343.40900       2.9445487     0.015897914
       1168.0000       292.27647       98622.075       13749.778      0.11425000       2.9882500      0.92525010       343.81400       2.4581889     0.013325587
       1173.0000       292.30619       98622.531       13779.836       1.7330000       3.3690000     -0.59850000       343.68200       3.5258861     0.014800328
       1178.0000       292.33378       98613.098       13799.798       1.1852500       2.6257500      0.62550000       343.39400       2.0906228     0.012019088
       1183.0000       292.35357       98604.013       13820.935       1.9747500       3.1462500     -0.93950000       343.26100       2.6116372     0.012578798
       1188.0000       292.39013       98586.935       13853.494      0.54925000       2.0960000      0.64475010       343.65900       2.4516896     0.011263386
       1194.0000       292.41092       98582.167       13888.537      0.71275000       2.6957500     -0.38700000       343.28500       3.9763924     0.015950789
       1199.0000       292.41291       98579.536       13922.592       3.3230000       2.7345000      0.26700000       343.59000       3.6067092     0.012095045
       1204.0000       292.39921       98584.835       13930.844       3.0027500       2.3492500      0.38475000       343.53600       2.7359616     0.013322435
       1209.0000       292.32248       98612.883       13903.433       3.7155000       3.6112500     -0.42750000       342.56400       2.6192445     0.012196727
       1214.0000       292.34304       98621.099       13923.898       2.8387500       2.7887500     0.018500000       342.93500       3.7659130     0.015712215
       1219.0000       292.43233       98622.545       13970.891       2.1077500       2.8432500     0.061000000       343.09000       2.5911866     0.014118434
       1224.0000       292.46208       98622.055       13979.264       2.1965000       2.8917500      0.91525010       343.24100       2.2793204     0.012551647
       1229.0000       292.54911       98611.747       14011.598       1.6217500       2.1530000     0.050000000       343.00100       3.7962438     0.014205579
       1234.0000       292.57774       98602.437       14018.432       1.3707500       2.1915000      0.24050000       343.37300       3.2577381     0.012215043
       1239.0000       292.51792       98588.118       13987.286      0.79400000       2.9175000      -1.2650000       342.83200       2.9690806     0.011742862
       1244.0000       292.48769       98581.900       13938.127       2.0127500       4.7710000     -0.38900000       343.45100       2.7095177     0.012873505
       1249.0000       292.46110       98573.045       13874.904       1.2965000       2.5800000     -0.30700000       343.14900       2.9990575     0.013196043
       1254.0000       292.44091       98572.892       13819.506       2.9990000       2.8557500      0.46525000       343.46500       2.5193984     0.011275116
       1259.0000       292.44356       98586.311       13745.828       1.2255000       3.1725000      -1.2205000       343.01600       2.4729109     0.011912022
       1264.0000       292.38625       98593.303       13655.844       1.9787500       1.7222500      0.24375000       343.29700       4.4183104     0.011913732
       1269.0000       292.28611       98604.602       13546.679       2.9772500       2.5165000     -0.41350000       343.15500       3.4701824     0.012799625
       1274.0000       292.22650       98608.566       13482.550       2.7370000       1.3550000      0.98350010       343.57800       3.0805071     0.012160713
       1279.0000       292.11545       98608.939       13401.781       2.4135000       1.3357500     -0.31100000       343.26400       2.5531774     0.010953469
       1285.0000       292.06191       98604.784       13350.171       2.1422500       1.0342500    -0.063000000       343.72700       2.9594321     0.016349976
       1290.0000       292.08879       98592.050       13371.667       2.9297500       1.1795000      0.11350000       342.57900       3.4465414     0.013120304
       1295.0000       292.10514       98586.673       13376.541       1.5702500       1.3445000      0.31875000       343.46800       2.9861449     0.012759540
       1300.0000       292.13181       98577.102       13369.298       2.2782500      0.56325000      0.17600000       343.96100       3.7205789     0.014268607
       1305.0000       292.16813       98579.148       13392.454       2.0700000      0.38900000      0.61875000       343.95700       2.6459437     0.011835831
       1310.0000       292.23026       98592.962       13441.845       3.3490000       1.4137500      0.31775000       343.82000       2.3052079     0.013354029
       1315.0000       292.27992       98598.903       13495.862      0.90000000       2.4662500      0.43250000       344.06400       3.0893752     0.013946908
       1320.0000       292.34012       98611.123       13560.976       1.8450000      0.90425000      0.58875000       344.45000       4.9854887     0.014320788
       1325.0000       292.37362       98613.509       13637.191       3.3370000       2.3057500      0.10525000       343.13900       5.7858497     0.015356939
       1330.0000       292.37753       98609.522       13733.409       2.8662500       1.5185000     -0.19675000       343.24500       2.5447731     0.013470852
       1335.0000       292.42443       98602.639       13822.181       1.5465000       2.5387500      0.29675000       344.73100       3.1568946     0.013584212
       1340.0000       292.47478       98586.287       13940.120       2.3242500       2.8692500      0.14475000       343.96600       3.1359544     0.013772415
       1345.0000       292.53130       98580.484       14001.623       2.5117500       2.4477500    -0.022250000       342.80800       3.2532327     0.015473466
       1350.0000       292.61919       98571.323       14025.506       2.6075000       2.4842500     -0.23950000       343.02100       2.6879753     0.011186073
       1355.0000       292.69871       98574.122       14069.074       3.6017500       3.9895000     -0.16075000       343.38800       2.6626304     0.014532476
       1360.0000       292.83958       98593.061       14138.591       3.7680000       3.3537500     -0.49050000       342.84000       3.2439007     0.014828743
       1365.0000       292.81297       98600.468       14091.233       3.3645000       1.9197500      0.21725000       343.23200       4.5860970     0.019152281
       1370.0000       292.68129       98610.191       13970.701       2.8527500       1.5447500      0.26850000       343.53600       2.1303436     0.012916008
       1376.0000       292.61131       98614.759       13896.542      0.83300010       2.1432500      0.40150000       343.52400       3.4790275     0.012755111
       1381.0000       292.42441       98613.687       13744.011       1.2905000      0.87325010      0.17575000       344.43600       2.2305326     0.014469718
       1386.0000       292.40629       98606.141       13698.394       2.2402500       2.1327500      0.40925000       343.37500       2.5333423     0.011949070
       1391.0000       292.54082       98590.732       13761.262       2.5815000      0.82125000      0.17525000       343.55700       2.7226936     0.013433841
       1396.0000       292.59071       98584.610       13765.804       2.7705000       2.4795000     -0.26250000       343.00500       2.8031091     0.013405245
       1401.0000       292.64876       98571.911       13754.968       1.6695000       2.4855000    -0.058000000       343.47600       3.8992369     0.013244955
       1406.0000       292.67966       98573.135       13751.917       1.2407500       1.1147500      0.21450000       344.24600       4.2940037     0.012221273
       1411.0000       292.69394       98588.718       13756.233       2.0017500       3.1042500     -0.63025000       343.43700       2.9238569     0.016972768
       1416.0000       292.72405       98595.765       13771.306       2.7290000       1.9670000       1.1945000       343.70400       3.8646187     0.014993256
       1421.0000       292.76332       98606.267       13795.611       2.3547500       3.4810000    -0.063250010       343.14300       2.2602749     0.014085257
       1426.0000       292.74548       98608.630       13790.589       3.3330000      0.52025000     -0.25325000       343.89200       2.9277524     0.013665371
       1431.0000       292.72786       98608.503       13792.050       2.8210000      0.13600000     -0.34300000       343.80600       3.6464609     0.015930428
       1436.0000       292.66201       98601.985       13776.566       3.3652500       1.8192500      0.90200010       344.38900       2.3990241     0.012982229
       1441.0000       292.51888       98585.377       13729.737       4.1725000       1.3302500      0.24925000       343.86700       2.3651161     0.013289753
       1446.0000       292.41957       98580.188       13684.516       2.9495000       1.3267500      0.16025000       343.96300       3.1739266     0.023740988
       1451.0000       292.30277       98571.282       13634.712       4.2782500       1.8100000    -0.025250000       343.27400       3.2811524     0.015908505
       1456.0000       292.24053       98575.444       13600.763       3.7195000       1.3707500      0.70900010       343.95400       4.3144417     0.015831674
       1461.0000       292.19420       98594.978       13555.948       4.5472500       1.2162500      0.15450000       343.77700       3.8253030     0.012520115
       1467.0000       292.17057       98600.992       13515.338       3.5410000       1.7940000     -0.59325000       342.69000       3.3526513     0.016010044
       1472.0000       292.19902       98608.283       13501.630       2.5937500       1.7880000      0.32350000       343.23700       3.4596404     0.016151369
       1477.0000       292.21468       98597.240       13485.922       1.1037500       1.9125000      0.43725000       342.99500       4.2109036     0.014419693
       1482.0000       292.20612       98590.208       13468.350       2.1297500       2.2020000      0.18925000       343.66500       3.0952114     0.010236099
       1487.0000       292.10971       98575.666       13432.638      0.62525000       2.7620000     -0.35625000       343.02500       3.4588607     0.016096893
       1492.0000       292.12468       98572.042       13451.760       2.5955000       1.0060000     -0.16650000       342.92300       3.0891445     0.013799833
       1497.0000       292.18887       98574.543       13497.934       1.4977500       1.9560000    -0.044750000       342.95300       3.1372828     0.011050445
       1502.0000       292.29075       98583.661       13568.437       2.0260000      0.65600000     -0.25100000       343.85600       2.9778735     0.012602659
       1507.0000       292.36321       98590.990       13604.800       1.8437500      0.80975000     -0.14650000       343.65700       2.7278565     0.013370906
       1512.0000       292.53013       98607.084       13668.433       1.2012500       1.6750000     -0.15925000       343.90800       2.7520307     0.011559387
       1517.0000       292.49871       98613.168       13747.504       1.4770000       1.5732500      0.20100000       344.29200       3.6814674     0.015421792
       1522.0000       292.46101       98612.712       13781.864       3.1935000       2.1245000     -0.17875000       343.50700       2.6025155     0.013071326
       1527.0000       292.33894       98602.789       13832.809       3.1505000       2.9820000     -0.49650000       343.77900       2.5887260     0.014816916
       1532.0000       292.28703       98595.950       13870.705       1.6172500       2.1377500    -0.034750000       343.85500       3.2391619     0.014028313
       1537.0000       292.30490       98577.398       13884.800       1.9275000       1.1295000      0.27500000       344.04300       2.7020434     0.014419618
       1542.0000       292.25650       98571.715       13842.684       2.4492500       1.3675000      -1.2607500       343.29300       2.5332021     0.012301430
       1547.0000       292.19581       98573.406       13771.950      0.59625010       2.1975000     -0.78275000       344.37900       4.0374165     0.017135185
       1553.0000       292.14918       98584.866       13675.790       3.3995000       3.8615000     -0.91925010       344.19500       2.8700164     0.013328834
       1558.0000       292.04494       98601.898       13566.853       1.1772500       2.4380000     -0.44700000       344.01400       2.6016765     0.012937230
       1563.0000       291.97679       98608.409       13479.855       1.5982500       2.4400000     -0.16625000       343.80900       2.9437215     0.011129579
       1568.0000       291.96530       98610.008       13427.317       1.6445000       1.1227500      0.28850000       344.04100       2.9671689     0.011488326
       1573.0000       291.94514       98606.547       13393.095       1.8827500       2.9750000     -0.33550000       343.46900       2.7233168     0.012846768
       1578.0000       291.91013       98589.727       13349.267       3.6075000       3.3960000      -1.0292500       343.25100       2.9556084     0.012079029
       1583.0000       291.89176       98583.052       13329.372       2.4727500       2.8275000     -0.78325000       342.98800       2.6931069     0.011900809
       1588.0000       291.85617       98572.130       13343.342       1.9780000       2.7267500     0.075500000       343.28000       2.0700106     0.010163672
       1593.0000       291.89043       98572.006       13377.529       1.9162500       2.3410000     -0.29875000       343.77000       3.0689235     0.012592683
       1598.0000       292.00230       98589.549       13442.766      0.96900000       2.2410000     -0.26900000       343.68800       2.2959747     0.011018564
       1603.0000       292.06260       98597.502       13488.888       2.9157500       2.6542500     -0.61075000       343.11100       2.5017777     0.012267449
       1608.0000       292.15766       98611.732       13545.464       3.6015000       3.5430000     -0.30850000       343.47800       2.4530835     0.011676158
       1613.0000       292.22567       98614.109       13610.000       3.9547500       1.7895000     -0.11600000       344.02100       2.7423887     0.011626151
       1618.0000       292.26240       98601.331       13687.650       2.4100000       1.8037500      0.50575000       343.78100       2.7035712     0.012014337
       1623.0000       292.25959       98594.220       13723.461       3.3820000       2.6617500     -0.48575000       343.38200       3.1061170     0.012966901
       1628.0000       292.20811       98575.474       13744.410       2.2565000       1.6750000     0.051500000       343.76100       3.0839868     0.011642931
       1633.0000       292.19812       98571.169       13771.741       3.9297500       1.6512500     -0.41900000       342.90000       2.6543716     0.012988778
       1638.0000       292.18242       98579.649       13799.044       3.2617500       2.1012500       1.0247500       343.38900       5.9016043     0.019966371
       1644.0000       292.13450       98586.223       13758.217       3.2497500       3.4597500     -0.38675000       342.83300       3.2051696     0.014258226
       1649.0000       292.09300       98603.784       13687.077       3.1867500       2.9307500     -0.32825000       342.60500       2.4120475    0.0099921328
       1654.0000       292.09695       98609.413       13644.732       2.2472500       2.3497500    -0.067000000       342.76800       3.3898689     0.012504582
       1659.0000       292.08749       98609.921       13545.864       1.5762500       2.2095000     -0.51025000       342.78500       3.5546429     0.015656087
       1664.0000       292.09492       98605.514       13489.501       2.0115000       1.9455000    -0.065250000       343.08000       2.4295540     0.012722829
       1669.0000       292.17726       98588.073       13500.855       2.2325000       1.2405000    -0.077750000       343.57200       3.6876622     0.011071411
       1674.0000       292.22310       98581.909       13477.870       2.7227500       1.7267500      0.64075010       343.02600       3.9518434     0.011980249
       1679.0000       292.23697       98576.841       13420.662       1.7877500      0.71750000    -0.099250000       343.60000       2.6161122     0.010141053
       1684.0000       292.25691       98572.638       13398.820       3.1340000       1.4605000      0.17900000       343.17200       3.1553496     0.011106218
       1689.0000       292.25674       98575.932       13371.386       3.8367500       1.8865000      -1.2665000       343.52600       4.3299502     0.013070195
       1694.0000       292.31507       98575.598       13396.336       3.3405000       3.4320000     0.098250000       343.54500       3.1114698     0.012291738
       1699.0000       292.42861       98570.850       13469.958       3.5520000       2.4975000     -0.74425010       343.42500       3.1544809     0.015596230
       1704.0000       292.47509       98569.253       13536.103       2.9375000       4.1932500     -0.19475000       343.34600       2.9166063     0.015534681
       1709.0000       292.52179       98570.376       13631.821      0.39100000       2.9762500       1.2317500       344.19100       2.2406766     0.010936319
       1714.0000       292.57737       98570.394       13731.798       2.0460000       1.8585000   -0.0080000000       343.80000       4.0028166     0.013097544
       1719.0000       292.59384       98566.377       13873.623       2.0982500       2.6270000     -0.10850000       343.76600       3.3173646     0.016251940
       1724.0000       292.60367       98570.453       13938.572       2.3662500       1.1690000    0.0087500000       344.19400       2.1115305     0.013133063
       1729.0000       292.65260       98580.009       14001.857       4.2347500       2.0270000     -0.16350000       343.16700       2.4061233     0.014994331
       1735.0000       292.66414       98589.039       14010.507       1.4205000       1.6107500      0.37425000       343.98500       2.6590292     0.014517578
       1740.0000       292.59023       98605.308       13906.235       2.7202500       1.2825000      0.76025000       343.81100       2.9941772     0.013249859
       1745.0000       292.59267       98609.943       13873.448       2.6685000       2.0132500      0.51125000       343.80800       2.3947323     0.014327750
       1750.0000       292.66535       98609.442       13861.106       1.6222500      0.48875000      0.72825000       343.75300       2.8639789     0.015659913
       1755.0000       292.65328       98604.029       13826.767       2.7767500       1.5465000      0.28400000       343.53700       3.2393882     0.013497459
       1760.0000       292.62611       98584.439       13812.187       1.9147500       1.2565000     -0.63475000       343.47700       3.9724695     0.015924158
       1765.0000       292.58393       98581.976       13757.168       2.9652500      0.12025000      0.33450000       344.22500       3.0106163     0.013851360
       1770.0000       292.43663       98581.657       13628.278       4.3575000       1.1430000     -0.26225000       342.98300       2.7532465     0.013939391
       1775.0000       292.42235       98585.266       13599.212       4.5185000       3.3165000     -0.98025010       343.21700       2.6541487     0.011670685
       1780.0000       292.47446       98605.364       13583.697       2.7035000       2.2905000     -0.71875010       344.47200       3.0963660     0.014841887
       1785.0000       292.51744       98609.960       13613.842       4.7917500       2.0227500     -0.42375000       343.20300       3.6865808     0.014810902
       1790.0000       292.63147       98609.437       13739.192       4.0390000       1.4217500      0.28125000       344.21000       3.2249397     0.011732426
       1795.0000       292.69560       98604.054       13810.411       2.4190000       1.1650000     -0.51950000       344.89700       3.4402726     0.012192863
       1800.0000       292.75303       98586.601       13879.901       1.8137500       2.0715000       1.7447500       345.18500       3.0274384     0.014822939
       1805.0000       292.77026       98580.908       13941.075       2.7637500       2.6305000     -0.18450000       343.53300       2.6655630     0.014415872
       1810.0000       292.79138       98571.227       14014.653       2.1435000       2.7160000      0.52500000       344.52700       2.5554032     0.016625849
       1815.0000       292.73726       98573.865       14030.425       3.8000000       3.2385000     -0.35575000       343.68700       2.3428425     0.010307849
       1820.0000       292.60113       98593.560       14021.220       3.0557500      0.98775010    -0.021250000       343.72400       2.8541796     0.010519177
       1826.0000       292.47143       98600.140       13977.688       3.2935000       2.2900000     0.042000000       343.26600       3.9753485     0.017518244
       1831.0000       292.29219       98609.123       13869.644       2.7830000       1.1100000      0.37750000       343.26300       3.0018208     0.015545200
       1836.0000       292.23687       98604.934       13829.481       3.1835000       1.4785000      0.20500000       343.84700       2.6265346     0.015759829
       1841.0000       292.22238       98585.960       13800.182       2.9007500       2.2632500     -0.14075000       343.28400       3.0659323     0.011102030
       1846.0000       292.25684       98578.844       13783.807       3.0570000       1.5240000      0.43675000       343.68900       3.2169801     0.016145302
       1851.0000       292.38607       98566.819       13798.531       2.9080000       2.3790000      0.23675000       343.96400       2.8342144     0.011300213
       1856.0000       292.45558       98569.050       13794.044       1.5900000       2.8990000     -0.16050000       343.33200       2.3770220     0.010200077
       1861.0000       292.57026       98583.174       13788.908       3.9652500       3.5990000     -0.69875000       343.42800       2.2394044     0.010846026
       1866.0000       292.57455       98591.225       13778.605       2.1440000       2.6000000     -0.28000000       343.16400       3.4197519     0.010702214
       1871.0000       292.51029       98609.053       13758.873       1.8695000       1.6450000      0.62375000       344.13600       2.6087946     0.012591004
       1876.0000       292.48144       98606.886       13760.557       2.4985000       2.4175000     -0.48525000       342.67100       2.6969053     0.014744825
       1881.0000       292.39327       98591.773       13766.297       2.9925000       2.6412500      0.30075000       343.62300       3.4644708     0.013194997
       1886.0000       292.37065       98584.859       13777.026       1.3615000       1.6417500      0.28025000       344.29400       2.7727614     0.014732720
       1891.0000       292.40877       98566.322       13809.427       2.4120000       2.2830000     0.096250010       344.71200       2.7301665     0.015558579
       1896.0000       292.38998       98567.504       13820.023       2.4950000       2.9225000     -0.64800000       343.63900       3.2997382     0.011391346
       1901.0000       292.37242       98584.190       13835.699       3.9282500       2.4755000     -0.25150000       343.43900       4.0458807     0.017929644
       1906.0000       292.31561       98590.176       13810.537       4.0682500       1.8625000     -0.37750000       343.62800       3.3308129     0.016596134
       1911.0000       292.20719       98603.319       13757.855       3.7672500       2.3620000     0.011500000       343.77000       2.9608368     0.015222246
       1917.0000       292.14675       98602.177       13710.835       4.0825000       2.7220000     -0.56575000       342.86600       3.3074647     0.012795318
       1922.0000       292.08837       98590.976       13640.621       3.9650000       1.1690000     -0.16250000       343.65500       4.6963553     0.018812467
       1927.0000       292.11477       98575.817       13651.578       2.0515000      0.30800000      0.19250000       344.50500       2.6222753     0.010474192
       1932.0000       292.10623       98572.049       13632.926       4.0772500       1.6590000      0.38450000       344.50200       2.0903248     0.011670053
       1937.0000       292.07005       98580.927       13591.765       5.0712500     -0.89475010     -0.41675000       343.66500       3.1871123     0.010643941
       1942.0000       292.05026       98584.818       13571.671       3.8887500     -0.23575000      0.52675000       343.77000       3.4357285     0.016285910
       1947.0000       292.03047       98589.944       13554.226       4.6845000      0.73650000     -0.10325000       343.84800       2.8113689     0.016806862
       1952.0000       291.99415       98603.770       13517.754       4.4065000     -0.20525000      0.60075000       343.19100       2.6300177     0.013039026
       1957.0000       291.98575       98602.139       13523.241       4.5580000      0.76325010      0.70400010       343.57000       2.4978859     0.012424246
       1962.0000       291.99437       98590.932       13555.703       3.0287500      0.50950000      0.21525000       344.16500       2.9158651     0.015545917
       1967.0000       292.03067       98578.721       13621.385       3.1035000       1.8902500     -0.39875000       343.47400       4.0394725     0.015267465
       1972.0000       292.05094       98573.282       13667.184       4.4677500      0.53400000      0.30250000       343.31500       2.9469725     0.011756315
       1977.0000       292.11566       98570.314       13743.946       4.6510000      0.37250000      0.69825010       343.57800       2.7705312     0.010394222
       1982.0000       292.11917       98572.878       13780.173       4.1910000       1.6945000      0.44900000       343.46200       2.6784863     0.015834292
       1987.0000       292.07002       98592.333       13787.317       3.7050000       2.2155000     -0.44850000       343.08800       2.5338622     0.010917460
       1992.0000       292.01303       98597.825       13769.003       2.0605000       1.3615000      0.48225000       343.99000       4.2415288     0.012853844
       1997.0000       291.93146       98598.386       13724.349       2.5707500       1.3115000      0.17925000       343.63000       3.8582569     0.015730942
       2002.0000       291.78348       98599.721       13631.586       3.9087500      0.84825000     -0.69800000       343.29100       3.3905451     0.011988246
       2008.0000       291.75437       98569.074       13610.416       3.3137500       2.2082500     0.080000010       343.24600       3.0540249     0.017224502
       2013.0000       291.73652       98560.832       13579.034       3.7280000       2.2382500     -0.23525000       342.96000       4.3703023     0.014831729
       2018.0000       291.77587       98560.697       13569.483       3.3700000       1.7095000    -0.027750000       343.14400       2.4819755     0.015953995
       2023.0000       291.80590       98563.233       13563.152       1.7817500       1.3915000      0.84350000       343.74300       2.3943002     0.011194824
       2028.0000       291.83393       98587.263       13532.509       2.3867500    -0.051250000      0.41925000       344.04100       3.2888069     0.012793925
       2033.0000       291.85376       98594.644       13516.201       3.2472500       1.4090000    0.0045000000       343.83300       2.8400446     0.011179310
       2038.0000       291.89046       98593.283       13530.090       2.9835000      0.28575000      0.53675000       343.91000       2.5638953     0.014757598
       2043.0000       291.90909       98591.889       13535.955       4.1115000       1.5625000     -0.35650000       343.36100       2.5525400     0.010182513
       2048.0000       291.89946       98574.644       13521.671       4.0677500       1.8180000      0.69600000       343.73900       2.5622174    0.0099918117
       2053.0000       291.89919       98572.309       13532.341       3.2055000      0.62175010      0.34400000       343.18100       2.7605515     0.010393217
       2058.0000       291.92850       98580.194       13578.041       2.4042500       1.2477500      0.12650000       343.41800       4.0081689     0.017328229
       2063.0000       291.90639       98585.452       13598.378       2.4950000      0.95375010      0.40800000       343.76000       6.0797915     0.020972094
       2068.0000       291.84572       98605.130       13628.734       2.4320000      0.71625010     -0.39325000       343.76400       6.0303677     0.017147481
       2073.0000       291.79460       98609.241       13634.215       3.8305000      0.42250000     -0.16025000       343.48400       2.9603411     0.010676359
       2078.0000       291.65725       98603.431       13579.190       3.3210000       1.6132500      0.29950000       343.25500       2.9966440     0.011943664
       2083.0000       291.62229       98596.025       13578.542       3.4497500       1.5322500      0.14250000       343.16800       2.5639171     0.010535993
       2088.0000       291.66135       98565.795       13597.933       4.9450000       2.8475000     -0.54225000       342.90900       3.1650767     0.010633338
       2093.0000       291.69404       98559.786       13619.777       1.8222500      0.38625000      0.38350000       343.57400       3.4632193     0.012317760
       2099.0000       291.80157       98570.963       13687.382       2.4965000       1.0082500      0.36525000       344.07700       4.1990448     0.013245488
       2104.0000       291.88220       98576.090       13738.683       3.9540000      0.89975010     0.067500000       342.82100       2.0774353     0.010583065
       2109.0000       291.97236       98601.688       13793.279       4.0742500      0.52150010      0.57650000       342.89200       2.7707036     0.016741648
       2114.0000       292.02914       98605.868       13829.489       3.9330000      0.61250000     -0.78175000       342.96000       3.6478756     0.011566130
       2119.0000       292.07700       98588.911       13845.191       3.3600000      0.90425000    -0.041750000       343.56500       3.7809306     0.011928758
       2124.0000       292.12278       98583.007       13894.458       3.3725000       1.4315000    -0.031250000       342.81200       3.8506576     0.011276591
       2129.0000       292.15058       98567.849       13952.755       3.1000000       1.5457500     -0.41775000       343.16400       3.5377544     0.015166891
       2134.0000       292.15665       98567.269       13997.203       2.4832500      0.53350000     -0.10350000       343.82100       3.8178538     0.010987415
       2139.0000       292.16957       98581.732       14101.248       2.9742500       1.0865000     -0.55425000       342.94500       3.0811785     0.010433574
       2144.0000       292.15203       98587.776       14116.857       2.3112500      0.64375000      0.24375000       343.90500       3.7740646     0.013430489
       2149.0000       292.07879       98602.742       14071.165       3.9347500       1.7260000      0.39675000       343.01600       3.8274085     0.016277581
       2154.0000       292.02870       98603.564       14012.749       2.5785000      0.44325000      0.42725000       343.32700       5.3321467     0.013965540
       2159.0000       291.95384       98591.360       13859.367       3.8130000      0.67350010      0.69800000       343.40400       3.8953248     0.011931455
       2164.0000       291.93181       98582.630       13803.507       3.4720000      0.42675000      0.34825000       343.97100       3.7329257     0.015391551
       2169.0000       291.96912       98557.921       13812.074       2.9040000     -0.36775000      0.26800000       343.78100       3.4853965     0.016143950
       2174.0000       291.94583       98555.979       13754.638       3.5352500       1.2337500     -0.59875010       343.21600       3.1635091     0.014502425
       2179.0000       291.90759       98569.800       13696.248       2.5820000      0.66700010      0.36475000       343.69000       3.5723224     0.011592746
       2185.0000       291.89547       98578.220       13653.272       2.5907500      0.83375010     0.036500000       343.68600       2.9856946     0.012547695
       2190.0000       291.85495       98601.874       13566.780       2.9997500      0.50300000     -0.25900000       343.34200       2.8330891     0.013726566
       2195.0000       291.83069       98605.555       13521.598       2.8740000       1.4925000      0.20675000       343.79300       2.9855306     0.010480074
       2200.0000       291.84572       98595.059       13530.919       2.5072500      0.75975000      0.19475000       343.72700       3.0351176     0.014864747
       2205.0000       291.85571       98586.230       13536.690       1.4550000      0.91700010      0.25100000       343.92800       4.2466156     0.011836680
       2210.0000       291.84295       98562.329       13529.716       2.3187500      0.85275010     -0.17600000       343.42900       4.2524645     0.017110335
       2215.0000       291.84918       98561.733       13540.153       2.3700000       1.4267500     -0.17075000       342.99500       2.5232022     0.010577410
       2220.0000       291.88770       98570.982       13583.662      0.96975000      0.54400000      0.41125000       344.63500       2.6429857     0.010086063
       2225.0000       291.91762       98576.897       13627.401       1.6070000      0.53825000      0.27850000       343.97400       2.8145696     0.010658341
       2230.0000       291.94258       98602.925       13661.316       3.2732500      0.95000000    -0.038250000       343.27300       2.4399792     0.010469768
       2235.0000       291.96289       98604.890       13717.712       3.4417500       1.3092500     0.083500010       343.23600       2.2666690    0.0099251995
       2240.0000       291.99977       98587.466       13820.699       2.9420000       1.7012500      0.31800000       343.90800       2.2649975     0.015119210
       2245.0000       292.01362       98581.444       13877.845       2.8097500       1.1960000      0.16150000       343.28700       2.0895111     0.012030806
       2250.0000       292.00049       98567.016       13928.362       2.9307500      0.97675010    -0.045250000       343.52100       2.1583418     0.013849442
       2255.0000       292.00072       98567.772       13952.253       3.1520000       2.1532500     -0.42575000       343.36500       3.4310543     0.014946324
       2260.0000       291.98857       98582.993       13932.647       3.3485000       1.5312500     -0.25875000       343.21700       6.0972657     0.019362760
       2265.0000       292.00459       98588.978       13944.039       1.5025000       2.0660000   -0.0075000000       343.92800       4.2849592     0.019108691
       2270.0000       292.05334       98603.474       13970.417       1.5072500       2.3342500     -0.40475000       343.24500       4.1691876     0.014055302
       2276.0000       292.05663       98601.528       13950.220       2.8490000       2.0875000     0.037250000       343.84400       3.4365493     0.014329050
       2281.0000       292.06538       98588.192       13937.605       3.6915000     0.035750000      0.25275000       343.39500       3.1817623     0.011493046
       2286.0000       292.03790       98578.381       13881.322       4.2102500       2.1832500     -0.41200000       343.07100       2.6942471     0.010236246
       2291.0000       291.93207       98559.932       13739.999       3.0885000       1.0970000     -0.35250000       343.07100       3.3309754     0.013052318
       2296.0000       291.93789       98552.545       13711.866       2.8192500       1.3800000     -0.11350000       343.52700       3.3813559     0.010973160
       2301.0000       291.98000       98548.015       13707.642       2.5167500      0.58075000   -0.0032500000       343.28200       3.9642878     0.011584935
       2306.0000       292.02699       98549.496       13733.313       2.6370000      0.42925000      0.32375000       343.81700       3.5487802     0.010439790
       2311.0000       292.16086       98561.298       13852.705       1.8560000       1.8362500     -0.23125000       343.18000       3.4122426     0.011209287
       2316.0000       292.18416       98561.548       13872.676       2.1325000      0.68725000    -0.082250010       344.45100       3.3980643     0.011659109
       2321.0000       292.16558       98559.946       13867.655       2.5085000       2.1702500     0.085500000       343.53800       3.0709435     0.010947347
       2326.0000       292.13807       98562.053       13854.516       2.9300000      0.74900000     -0.32725000       342.81400       4.4999019     0.017501770
       2331.0000       292.05035       98556.403       13788.005       2.4207500       1.8322500     -0.43775000       343.39300       3.0698100     0.013647891
       2336.0000       292.01929       98563.751       13777.454       1.5390000       1.2772500      0.12450000       343.95500       4.0528453     0.016680233
       2341.0000       291.98806       98586.488       13787.995       1.8202500       2.3857500     -0.82925000       343.99500       3.1722882     0.016723371
       2346.0000       291.99566       98590.873       13791.103       1.6227500       2.4807500     -0.25900000       342.81600       3.3399304     0.017134543
       2351.0000       292.05441       98594.956       13823.519       2.9402500       1.9945000     -0.54800000       343.51600       3.5328968     0.015598854
       2356.0000       292.05548       98588.898       13803.973       1.5670000       1.5240000     -0.17125000       343.92100       3.3958266     0.010877637
       2361.0000       292.04873       98563.234       13747.236      0.86925010       1.7007500     -0.21800000       343.61100       2.7020115     0.013551035
       2367.0000       292.06061       98560.761       13730.519       2.0630000       1.2015000     -0.27500000       343.80900       3.0887093     0.014344271
       2372.0000       292.05678       98562.299       13721.291       2.1675000       1.3745000      0.32975000       344.12700       5.0819984     0.017002620
       2377.0000       292.00941       98584.853       13635.232       2.1405000       1.1405000     -0.26050000       344.22300       3.0700678     0.014037041
       2382.0000       291.99919       98593.697       13603.823       2.0142500      0.65650000    -0.014000000       344.16700       3.3413603     0.012312504
       2387.0000       291.96000       98595.827       13544.930       2.5075000     -0.28025000    -0.013250000       343.79200       2.6456161     0.014196392
       2392.0000       291.93790       98593.478       13513.742       4.1705000       1.7775000    -0.015250000       343.10000       2.6176128     0.010367218
       2397.0000       291.94038       98584.962       13518.387       2.9735000       1.3500000     -0.32300000       342.91900       2.8281734     0.011429479
       2402.0000       291.98650       98562.292       13593.795       3.8675000      0.82375000  -0.00025000000       343.69900       2.6343849     0.013775860
       2407.0000       292.05969       98561.000       13653.862       2.5762500      0.50600000     -0.42600000       343.53100       2.7458062     0.017371186
       2412.0000       292.14421       98562.336       13715.821       1.7730000      0.16725000      0.43675000       343.87900       3.1001102     0.016253779
       2417.0000       292.27146       98586.404       13778.286       2.2662500       2.1272500     -0.37775000       342.95400       3.1183124     0.016588135
       2422.0000       292.36475       98594.304       13864.690       2.0760000      0.85800000     -0.23150000       343.64600       3.2397433     0.010574574
       2427.0000       292.41595       98591.489       13974.174       2.4317500       1.3765000    -0.086750000       343.55000       3.1050165     0.011299703
       2432.0000       292.45683       98588.049       14051.997       1.6362500       1.1547500    -0.072000000       343.52600       3.7474343     0.013011357
       2437.0000       292.47023       98561.220       14160.390       1.5945000      0.96300010     -0.12125000       343.66000       3.1194717     0.013946908
       2442.0000       292.50007       98555.204       14230.829       1.6312500       1.1875000     -0.25150000       343.58900       3.3635576     0.017620234
       2447.0000       292.52986       98559.020       14268.209       2.0640000       1.8935000      0.21325000       344.32900       3.0209765     0.016061018
       2452.0000       292.54232       98574.729       14255.961       1.3075000       1.8427500      0.22850000       344.20200       2.7674131     0.012232459
       2458.0000       292.59540       98592.678       14209.945       1.4972500       1.7987500      0.31750000       344.91000       2.5734294     0.010695288
       2463.0000       292.65699       98594.812       14187.348       2.4797500       2.0485000      0.11125000       344.96900       4.7263277     0.013758950
       2468.0000       292.74512       98569.041       14137.518       1.1282500       1.3800000     -0.23050000       343.90700       2.3733639     0.010886370
       2473.0000       292.81552       98561.402       14113.976       1.9005000       2.1457500     -0.17150000       343.32200       3.9239725     0.017834146
       2478.0000       292.91496       98555.885       14131.675       1.8757500      0.42775000     -0.19050000       345.24100       3.9518519     0.012065921
       2483.0000       292.97196       98557.700       14129.257       2.9160000      0.78475000      0.64275000       344.20300       3.6201411     0.011988662
       2488.0000       293.00538       98581.272       14127.057       1.6515000      0.47275000    -0.085000000       344.81300       3.8455899     0.019623604
       2493.0000       293.01260       98588.683       14122.368       2.5877500      0.38600000     -0.34475000       344.23200       2.7244407     0.010596872
       2498.0000       292.96618       98594.617       14098.232       3.2220000      0.16225000      0.48150000       344.42600       3.5041677     0.016359364
       2503.0000       292.94619       98592.817       14096.240       3.3605000      0.91500000   -0.0020000000       343.49400       4.6545854     0.014769006
       2508.0000       292.90954       98564.638       14120.894       2.4205000       1.0497500      0.19875000       344.21500       3.4630446     0.011481537
       2513.0000       292.89060       98560.337       14122.677       1.6267500      0.22525000       1.0152500       345.61500       3.8810864     0.012547528
       2518.0000       292.88592       98570.375       14129.971       1.5385000       2.2215000     -0.52125000       344.13700       4.4517053     0.018392870
       2523.0000       292.89731       98574.800       14122.543       3.1962500       2.1745000     -0.34850000       344.29900       2.7774657     0.015416664
       2528.0000       292.91995       98599.550       14091.550       4.6092500       1.6492500     -0.25625000       343.57900       2.9116115     0.010943262
       2533.0000       292.95101       98605.479       14059.202       2.2707500       1.4132500    -0.030500000       344.44200       2.7559327     0.010958637
       2538.0000       293.02340       98590.293       14028.168       3.6652500      0.93825010      0.92925010       344.15800       2.6182625     0.011186158
       2543.0000       293.06212       98584.242       13980.743       4.6200000       1.3867500      0.38775000       343.90400       2.5578842     0.011776947
       2549.0000       293.13282       98568.126       13895.494       4.6130000       1.9900000     -0.84300010       343.55100       2.4659972     0.011457703
       2554.0000       293.10783       98567.380       13836.105       4.2630000       1.3650000       1.2560000       343.59800       2.6606227    0.0098629380
       2559.0000       292.99704       98584.465       13771.568       3.7030000       1.0885000     -0.37800000       343.91300       4.2705518     0.017961537
       2564.0000       292.92310       98587.797       13714.018       3.4010000       1.3232500      0.18475000       343.88800       2.5894820     0.010855126
       2569.0000       292.80248       98595.209       13683.895       3.2190000       2.0430000      0.29250000       343.87800       2.5603766     0.010123883
       2574.0000       292.70694       98592.035       13617.823       4.3895000       2.3635000     -0.16650000       343.41300       3.2540848     0.012769648
       2579.0000       292.61741       98566.409       13509.734       3.9760000       2.1285000     -0.29650000       343.75100       3.4351082     0.016107841
       2584.0000       292.57528       98561.493       13451.526       4.5592500       3.0155000     -0.28700000       343.59900       2.9095068     0.011906922
       2589.0000       292.57434       98560.670       13394.475       4.9245000       2.2150000    -0.056000000       344.31300       2.5536274     0.010987916
       2594.0000       292.53403       98564.569       13354.502       3.7965000       1.9700000     -0.24500000       344.26200       3.0690370     0.012560896
       2599.0000       292.51818       98590.479       13363.610       4.3052500       1.9752500     -0.18125000       342.71100       3.9011517     0.011655878
       2604.0000       292.49450       98595.328       13351.823       3.7797500       2.2852500     -0.63825010       342.68200       3.0089361     0.012412440
       2609.0000       292.42258       98590.526       13324.828       3.0350000       1.7055000     -0.30000000       343.68800       3.3942283     0.012006598
       2614.0000       292.37691       98585.037       13310.765       2.1000000       2.5602500     -0.14075000       343.01300       2.5344336     0.011285499
       2619.0000       292.37525       98557.768       13305.204       1.3755000       1.8605000      0.18275000       343.58600       3.1963458     0.011416242
       2624.0000       292.34200       98555.726       13300.181       1.9567500      0.32775000     -0.14400000       344.62500       2.8611286     0.010182856
       2629.0000       292.28181       98572.502       13306.338       1.0067500       1.5045000     0.010500000       345.33900       2.9446761     0.012717483
       2634.0000       292.23177       98576.506       13296.594       3.5112500      0.93750010    -0.040000000       343.50600       2.2331158     0.011104734
       2640.0000       292.17063       98594.532       13272.779       1.1740000       1.8050000     -0.71925000       342.85200       2.9781410     0.011479550
       2645.0000       292.12050       98592.563       13263.275       2.2957500       1.5267500      0.26250000       343.55500       2.7197081     0.010318839
       2650.0000       292.06949       98565.367       13252.638       1.3007500       2.2660000     -0.20950000       343.71700       2.4407779     0.013297006
       2655.0000       292.01962       98559.790       13236.662       2.0352500       1.2815000      0.16750000       344.35800       2.4608852     0.017089826
       2660.0000       291.93610       98557.782       13203.001       1.9262500       1.5275000     -0.13950000       343.80800       3.2364292     0.010900408
       2665.0000       291.93474       98559.273       13222.116       3.5585000       1.1587500     -0.27475000       343.54500       2.6205858     0.013721776
       2670.0000       291.98331       98575.411       13268.245       2.3955000       2.2202500    0.0027500000       343.13400       2.7319683     0.011556782
       2675.0000       292.01023       98578.538       13294.354       1.7105000       2.3357500     -0.49075000       343.85400       2.6486503     0.014903181
       2680.0000       292.07657       98579.418       13344.853       2.4315000       1.9432500    -0.024750000       344.21100       3.3398230     0.011345959
       2685.0000       292.13733       98573.927       13399.358       2.2365000       1.1337500    -0.011000000       344.07200       2.5523505     0.011509660
       2690.0000       292.18582       98552.996       13435.310       2.4605000       2.2297500     -0.35475000       343.15500       3.9108585     0.012740008
       2695.0000       292.22597       98552.077       13478.471      0.92400000       2.4065000      0.24325000       343.10200       2.3851963     0.010479908
       2700.0000       292.28804       98557.325       13549.161       2.6490000       2.2652500     -0.13600000       343.00400       2.8078229     0.010681067
       2705.0000       292.33149       98561.191       13613.223       2.9807500       2.1852500    -0.059500000       343.40700       3.2850507     0.011117457
       2710.0000       292.36481       98583.458       13689.816       1.9350000       1.5315000     -0.53275000       343.54300       2.9353837     0.014813937
       2715.0000       292.35279       98584.183       13700.407       3.5827500      0.60300000     -0.13725000       343.62400       3.3459810     0.011754890
       2720.0000       292.31750       98565.647       13703.653       2.4665000      0.51200000      0.28650000       343.63300       2.8343130     0.013467716
       2725.0000       292.29098       98562.869       13673.922       2.4030000       2.1042500     -0.41025000       343.63000       2.9878765     0.012712556
       2731.0000       292.18623       98556.157       13531.422       2.7432500       1.4337500     0.063500000       343.46800       5.4291260     0.014835466
       2736.0000       292.18229       98562.440       13493.186       3.0590000      0.24500000     -0.31600000       343.16000       3.7790995     0.018429492
       2741.0000       292.23773       98589.461       13486.551       3.0000000      0.40725000      0.24675000       343.89800       2.2485566     0.012500429
       2746.0000       292.27633       98588.492       13482.358       2.6502500      0.34800000     -0.38550000       344.01200       2.3968637     0.010588231
       2751.0000       292.33964       98578.283       13509.234       3.1915000       1.6167500     -0.31650000       343.53200       2.7081539     0.016387580
       2756.0000       292.38906       98571.785       13513.461       2.5485000       1.6555000      0.25900000       343.82500       3.5925976     0.016689240
       2761.0000       292.45767       98544.155       13522.230       3.6067500       3.2055000     -0.21900000       343.25800       3.6173936     0.015199131
       2766.0000       292.46987       98548.180       13514.372       2.0250000       1.6560000      0.58975010       344.09700       3.8207904     0.012271180
       2771.0000       292.47360       98575.821       13495.629       2.1795000       2.2447500     -0.21775000       343.78100       2.2832515     0.010130892
       2776.0000       292.42677       98580.139       13476.043       1.9947500       2.5665000     0.095000010       343.90700       4.2272029     0.012455343
       2781.0000       292.30305       98590.698       13440.181       1.9045000       1.8275000    -0.020500000       343.52300       4.0533530     0.013746235
       2786.0000       292.25182       98584.805       13430.115       2.1382500       2.0385000     -0.10950000       344.12000       2.8252048     0.011411946
       2791.0000       292.19414       98551.818       13431.026       2.4492500       2.3727500      0.20625000       343.91500       2.8315907     0.011898198
       2796.0000       292.17218       98549.943       13425.619       2.1402500       1.9935000     -0.34925000       344.11200       2.6381550     0.015411820
       2801.0000       292.19129       98557.759       13428.804       1.8920000       1.8410000     -0.51675000       343.54300       2.5912202     0.017684712
       2806.0000       292.20983       98562.305       13433.472      0.30925000       1.6102500      0.24950000       344.56000       2.6344188     0.012527646
       2811.0000       292.20742       98584.190       13395.840       1.5140000       1.7517500     -0.87800000       344.02800       2.7070155     0.014804958
       2817.0000       292.32862       98581.591       13496.454       1.9150000       1.9942500     -0.11825000       344.35200       1.9693570     0.012030215
       2822.0000       292.49948       98563.898       13648.142       3.2230000       3.2025000     -0.43900000       343.75900       2.0739865     0.015415070
       2827.0000       292.67042       98559.364       13805.540       2.4240000       2.1745000      0.16000000       343.77100       2.1239640     0.011355432
       2832.0000       292.77708       98557.779       13915.244       1.5492500       1.3070000      0.48475000       344.79400       2.0433534     0.010714816
       2837.0000       292.77005       98574.884       13915.297       1.2557500      0.92425010     -0.24850000       344.26500       2.1684823     0.011229867
       2842.0000       292.79966       98578.460       13963.299       4.2345000       2.1880000      0.33650000       344.07700       2.0789177     0.014985404
       2847.0000       292.82921       98575.870       14024.035      0.72075000       1.7380000    -0.024750000       344.35700       1.9359391     0.010275002
       2852.0000       292.83559       98566.121       14093.348       1.3162500       1.2355000     -0.46075000       344.96900       2.0091246     0.010032829
       2857.0000       292.89871       98560.867       14165.467       3.8075000       3.7290000     -0.45525000       343.75600       1.9477878     0.012586584
       2862.0000       293.00559       98545.398       14279.342       2.3845000       4.8267500      0.30825000       343.59900       2.0046176     0.010891976
       2867.0000       293.05549       98568.560       14280.752       4.3905000       2.4817500     -0.94725010       343.36800       1.9341080     0.011170520
       2872.0000       293.10704       98576.979       14264.796       4.2975000       1.8832500    -0.018500000       343.71900       1.9374424     0.010419076
       2877.0000       293.10052       98586.926       14147.084       3.1027500       3.7005000      0.42950000       343.93300       1.9615200     0.011347611
       2882.0000       293.13797       98593.417       14085.406       2.9160000       3.0210000     -0.68900000       343.47400       1.9102287     0.013253137
       2887.0000       293.24525       98580.366       14051.733       3.0867500       4.2000000     -0.27900000       342.92200       1.9558674     0.010485887
       2892.0000       293.30623       98577.921       14015.455       1.5947500       1.7737500     -0.14875000       344.23000       1.9881211     0.015050901
       2897.0000       293.35491       98580.392       13991.508       2.4790000       3.2237500     -0.23275000       343.77600       1.9399633     0.010049858
       2902.0000       293.41894       98591.508       14006.088       1.8785000       3.3202500     -0.48050000       343.87900       1.8861989     0.012717152
       2908.0000       293.38056       98595.500       13931.968       1.5080000       4.1047500     -0.12675000       344.26900       1.9393143     0.011588991
       2913.0000       293.34942       98591.803       13894.449       2.0470000       3.1820000     -0.26000000       344.40300       1.8621005     0.012099309
       2918.0000       293.30330       98568.912       13864.510       3.5540000       4.1840000     -0.35375000       343.53800       1.9550253     0.010688183
       2923.0000       293.24189       98561.214       13823.233       2.3845000       5.3245000     -0.17650000       344.10900       1.9892493     0.012635567
       2928.0000       293.18378       98558.558       13815.227       2.2750000       2.4125000      0.38575000       344.04600       1.9156397     0.011106026
       2933.0000       293.09178       98558.062       13764.334      0.61225000       2.4115000      0.50550000       344.21600       1.9346755     0.010651065
       2938.0000       292.91940       98575.927       13663.130       1.9985000       5.1310000     -0.85100000       343.88600       1.9157690     0.010150229
       2943.0000       292.82216       98578.128       13581.556       2.1262500       1.9595000     -0.23975000       344.57900       1.9794520     0.011565019
       2948.0000       292.71651       98569.084       13456.119       1.5742500       1.0145000    -0.018750000       344.92700       1.9429802     0.011073225
       2953.0000       292.67154       98564.986       13396.372      0.72250000       2.9205000     -0.23300000       343.66500       1.9109921     0.010910159
       2958.0000       292.74937       98546.128       13399.831       1.8012500       2.6417500      0.68825000       344.28900       1.9715732     0.012463748
       2963.0000       292.75861       98546.035       13375.818      0.22875000       1.0715000       1.0367500       344.39800       1.9496972     0.016380166
       2968.0000       292.74219       98571.509       13360.109       1.6752500       3.6705000    -0.059500000       343.15600       1.9298349     0.010972669
       2973.0000       292.75211       98577.988       13365.859       1.7860000       2.7432500     -0.65675000       344.25400       1.9245403     0.011574826
       2978.0000       292.77241       98588.129       13368.746       1.8217500       2.0100000     0.042000000       343.93600       1.9330983     0.010022519
       2983.0000       292.75138       98589.335       13374.053       3.6782500       2.7175000     -0.29550000       343.34700       1.9039331    0.0098722138
       2988.0000       292.75367       98559.293       13428.144       2.1980000       2.8720000     -0.32375000       343.67100       1.9606237     0.011457435
       2993.0000       292.70976       98555.320       13445.341      0.74475000       1.5417500      0.87550000       344.48600       1.8827806    0.0098811178
       2999.0000       292.54855       98573.005       13428.058       1.6950000       1.7892500      0.58425000       344.43700       1.8824884     0.011604618
       3004.0000       292.46199       98577.035       13412.556       1.7885000       1.6915000      0.37525000       344.69500       1.9566330     0.010540619
       3009.0000       292.34575       98594.007       13351.856       3.7225000       4.0582500     -0.41375000       343.01900       1.9420654     0.010492798
       3014.0000       292.31987       98594.118       13360.731       3.5530000       4.0097500     -0.52825000       343.50200       1.9251955     0.010538266
       3019.0000       292.39362       98563.388       13431.261       5.1040000       3.6807500     -0.53225000       343.66800       2.0052910     0.012967140
       3024.0000       292.40330       98561.069       13444.969       2.3302500       4.1505000      -1.5122500       343.55500       1.9399072     0.010743387
       3029.0000       292.43929       98572.895       13474.591       2.2892500       4.5142500     -0.47825000       343.44800       1.9356700    0.0094998593
       3034.0000       292.46519       98575.262       13492.106       1.2415000       4.2602500      0.37700000       343.71200       1.9321453    0.0098767601
       3039.0000       292.43106       98595.114       13446.228       1.5005000       2.5437500      0.14700000       343.48800       1.9664032     0.011334123
       3044.0000       292.44903       98593.745       13446.703       1.1732500       2.3362500     -0.87750010       343.49900       1.9551236     0.011513732
       3049.0000       292.50853       98560.427       13475.119      0.32275000       2.2352500      0.33500000       344.32600       1.9712766     0.012802434
       3054.0000       292.57245       98554.516       13520.265       1.3457500       2.2792500      0.14175000       343.64800       1.9278705     0.010332753
       3059.0000       292.67226       98555.104       13593.868       2.2237500       2.8695000      0.30275000       343.69500       1.9870482     0.013053183
       3064.0000       292.72812       98559.463       13644.824       1.8090000       2.3035000     -0.40775000       343.17800       1.9632342     0.011049527
       3069.0000       292.80272       98592.239       13723.870      0.51175000       1.4577500     -0.51475000       343.16000       1.8904996     0.020664087
       3074.0000       292.82159       98595.892       13765.952       1.0627500       1.8112500      0.10300000       344.42700       1.9350420     0.011013058
       3079.0000       292.77656       98576.703       13776.397       1.2230000       2.4035000     0.073750000       343.68700       1.9474102     0.011118849
       3084.0000       292.74278       98574.077       13777.562      0.15475000       1.2550000     -0.16975000       343.85800       1.9326126     0.010548827
       3090.0000       292.68146       98563.551       13775.131      0.33950000       2.4692500     0.068500000       344.16600       1.9236389     0.010213816
       3095.0000       292.61492       98562.621       13727.778       1.0957500       2.3542500      0.33625000       345.13700       2.0259821     0.014648648
       3100.0000       292.53807       98583.609       13637.788    -0.013750000       2.7312500     -0.53900000       344.07500       1.9194855    0.0094271632
       3105.0000       292.45188       98583.034       13557.796      0.36950000       1.3897500      0.30400000       343.86900       1.9277679    0.0099954312
       3110.0000       292.30605       98565.445       13423.715      0.75375000       3.8852500    -0.068250000       344.32700       1.9330427     0.012286173
       3115.0000       292.25516       98562.710       13363.556       2.0800000       2.4135000     -0.32650000       344.10700       1.8988124    0.0099788135
