MIRICO/SHELL project - Processed LDS file generated on
Mon Jul 17 15:53:00 2017
Time stamp for record start
05/11/2017  14:23:55.0000
Nb of points in the record
         617
Beam position index
       7.0000000
Beam angle (degrees)
       19.300000
Open Path length (m)
       33.730000
****************** Temporal data record ************************
Elapsedtime_sec Temp_K Press_Pa Humidity_ppmv WindX_m/s WindY_m/s WindZ_m/s Speedofsound_m/s CH4vmr_ppmv CH4vmrerror_ppmv  
      0.00000000       291.83712       98615.304       14018.011       3.9065000       1.9240000     -0.13175000       342.83200       1.9474897     0.014024654
       6.0000077       291.83504       98625.979       13960.915       4.5105000       3.7562500     -0.85050000       342.90000       1.9352106     0.015965233
       11.000021       291.88932       98632.695       13939.709       3.2400000       4.0822500     -0.73300000       343.31500       1.9417222     0.019151556
       15.999994       292.00678       98633.706       13953.534       1.9945000       2.3310000      0.70700000       344.18600       1.9769204     0.019765978
       21.000007       292.16091       98635.738       14004.678       2.6870000       3.0937500     -0.60350000       342.89200       1.9897114     0.017145113
       26.000020       292.45251       98640.714       14099.037       3.3632500       3.3127500      0.28975000       343.61600       1.9697819     0.014998109
       30.999993       292.59815       98641.507       14175.427       2.8675000       3.3597500    -0.062000000       343.16800       2.0022027     0.014008645
       36.000006       292.80181       98639.601       14338.183       4.1712500       3.7875000     -0.14675000       343.07700       1.9968349     0.013519241
       41.000019       292.81058       98635.354       14405.810       2.5102500       3.0017500     -0.52975000       343.98400       2.0204277     0.015278689
       45.999992       292.50519       98625.920       14383.146       2.9932500       5.8685000     -0.76125000       342.78100       1.9676612     0.018177097
       51.000005       292.36772       98619.007       14379.040       3.3167500       3.0070000     -0.26350000       342.75000       1.9987479     0.019882935
       56.000018       292.11341       98608.885       14314.525       1.4090000       1.4727500      0.75050000       344.28600       1.9577566     0.014006598
       61.000031       292.03597       98603.135       14285.735      0.90225010       4.1910000      0.58850000       343.64600       1.9895606     0.019949412
       66.000004       292.15980       98601.151       14288.799       2.4207500       4.2702500     -0.71525000       343.68000       1.9139954     0.016168471
       71.000017       292.25419       98599.205       14283.155       2.0402500       5.3587500     -0.31675000       342.69400       2.0222831     0.015945587
       76.000030       292.41971       98598.802       14262.018       1.8237500       3.3267500     -0.24275000       344.03000       2.0055209     0.015276222
       81.000003       292.58187       98599.912       14271.758       2.5707500       2.2577500      0.93400000       344.19400       1.9961544     0.019638071
       86.000016       292.86554       98600.935       14337.213       1.8920000       3.5130000      -1.0422500       343.18400       2.0379162     0.020818261
       91.000029       292.95511       98605.144       14338.136       2.8782500       3.6510000     -0.70775000       343.36100       1.9888726     0.018437737
       96.999997       292.95406       98616.096       14317.091       2.3827500       3.2517500      0.12300000       343.63700       2.0249344     0.018419930
       102.00001       292.91252       98623.047       14303.941       3.4497500       3.3065000     -0.24800000       342.92600       1.9916579     0.016936460
       107.00002       292.69985       98633.091       14262.480       3.1857500       2.2097500      0.49550000       343.28400       1.9739875     0.017146663
       112.00000       292.53952       98638.385       14202.532       3.3540000       1.4490000    -0.099000010       343.11300       1.9827685     0.019195675
       117.00001       292.37217       98640.968       14151.056       1.7972500       2.5235000      0.55675000       343.00800       1.9631972     0.014815215
       122.00002       292.24517       98641.202       14084.883       2.9177500       2.7625000     -0.67325000       342.39200       1.9457337     0.021639421
       127.00000       292.08065       98636.371       13959.758       4.2885000       1.8757500     -0.70575000       343.20200       1.9206225     0.015846197
       132.00001       291.99444       98634.359       13878.227       3.9142500       2.0162500    -0.016000000       342.95900       1.9926644     0.015461206
       137.00002       292.00489       98633.440       13812.408       2.9120000       2.2927500      0.19950000       343.38500       1.9575303     0.019650910
       141.99999       291.98870       98629.073       13772.161       3.9665000       1.7965000      0.13750000       343.08700       1.9342947     0.020209032
       147.00001       292.00040       98624.275       13757.301       2.0745000       1.3882500    -0.091250000       344.09800       1.9290888     0.019342557
       152.00002       292.00052       98618.913       13741.313       2.9025000       2.2627500      0.28950000       343.85300       1.9466793     0.020104635
       156.99999       291.98733       98607.478       13746.979       1.8137500       1.7487500      0.42400000       344.06500       1.9582400     0.015125575
       162.00001       292.00125       98602.164       13755.838       2.6895000       2.8212500     -0.26250000       343.36300       1.9324904     0.020572939
       167.00002       292.02571       98599.467       13752.225       2.9940000       2.6107500      0.43100000       343.23000       1.9722317     0.016881225
       171.99999       292.05940       98599.235       13779.525       2.8000000       3.0732500   -0.0080000000       343.29800       1.9353192     0.017293338
       177.00001       292.15901       98601.582       13863.112       1.9232500       3.3580000     -0.51275000       343.58100       1.9753859     0.018484491
       182.00002       292.16718       98606.278       13890.798       1.6750000       3.8727500      0.12050000       343.49400       1.9827985     0.020176446
       188.00003       292.10439       98617.487       13881.714       2.7227500       3.0915000     -0.17250000       342.42300       1.9793481     0.021159061
       193.00000       292.09455       98624.436       13930.247       3.1497500       1.7467500      0.51075000       342.76000       1.9628827     0.019809767
       198.00001       292.04264       98634.349       13988.673     -0.28750000       3.1692500      0.22050000       343.30600       1.9964060     0.019190924
       203.00003       292.03529       98639.145       14029.895       1.2195000       2.7682500     -0.13350000       343.38800       1.9845522     0.018368695
       208.00000       292.08794       98641.217       14129.451      0.80725000       2.1547500      0.38625000       343.52700       1.9494370     0.016707540
       213.00001       292.11826       98640.945       14166.337       1.8840000       3.1362500     -0.41025000       343.16900       1.9760911     0.014194786
       218.00002       292.14261       98635.966       14136.495       3.3262500       2.3842500     -0.29825000       343.39600       1.9448601     0.015495254
       223.00000       292.16266       98633.961       14130.366       3.0642500       3.0195000     -0.20050000       342.30300       1.9992469     0.014539323
       228.00001       292.21068       98633.681       14134.169       2.0130000       2.1692500      0.90900000       343.50000       2.0371370     0.019946787
       233.00002       292.20826       98627.440       14114.358       2.7987500       1.6830000      0.50725000       343.39300       1.9822745     0.018634577
       238.00000       292.17014       98620.215       14070.473       2.1907500       2.4712500     0.037000000       343.18200       2.0053326     0.015487946
       243.00001       292.13337       98610.838       14036.688       1.9797500       2.2520000     -0.34475000       342.94100       2.0162821     0.021802805
       248.00002       292.04820       98588.906       13983.660       2.5960000       1.3825000      0.52000000       343.00500       2.0344965     0.014665964
       253.00000       292.03082       98585.697       13965.826       1.0150000       2.0262500      0.19975000       343.29000       1.9649895     0.022886993
       258.00001       292.05518       98591.008       13978.166      0.31025000       2.3647500     -0.22925000       343.13100       1.9616736     0.015139540
       263.00002       292.04548       98597.490       13962.670      0.42850000       2.6127500      0.29850000       343.47100       1.9638161     0.017989351
       267.99999       292.05712       98617.503       13950.346      0.66925000       2.1407500     -0.81025000       342.84600       1.9729164     0.020200102
       274.00000       292.04799       98628.822       13933.918       1.0880000       1.4627500     -0.19650000       343.33000       1.9942831     0.019877675
       279.00002       291.99708       98636.462       13890.348       1.1780000       1.9817500      0.10375000       343.33000       2.0048881     0.021516285
       284.00003       291.98569       98638.896       13888.352      0.89325000       1.7467500    -0.031000000       343.78700       1.9527181     0.020330216
       289.00000       292.00045       98637.969       13913.375       2.8035000       1.3810000     -0.11500000       343.95100       1.9951372     0.021878240
       294.00001       292.00056       98633.222       13931.918       1.2845000       3.0162500     -0.85400000       342.81800       1.9753365     0.015196542
       299.00003       292.00907       98620.638       13966.763       1.0492500       2.6525000     -0.45050000       342.49400       1.9819138     0.014334822
       304.00000       291.99032       98615.426       13982.313      0.13800000       2.5107500      0.40700000       343.31600       1.9884068     0.013815116
       309.00001       291.96279       98612.368       13989.867       1.6577500       2.1152500      0.25875000       343.13400       1.9998295     0.015376631
       314.00003       291.92436       98604.522       14005.386       3.0690000       2.6847500     -0.19325000       343.19400       2.0181234     0.022947060
       319.00000       291.86031       98594.591       14031.346       3.9420000       2.3695000     -0.24325000       343.22900       1.9805042     0.015221762
       324.00001       291.81089       98592.332       14011.983       2.5400000       1.2365000     0.021000000       343.44900       1.9779650     0.014675485
       329.00003       291.73271       98587.447       13969.119       1.7300000       1.9500000     -0.43325000       342.85800       2.0000111     0.020018638
       334.00000       291.73940       98590.045       13950.422       2.2465000       2.1185000     -0.21150000       344.09300       1.9668407     0.018744042
       339.00001       291.79791       98603.633       13913.277    0.0012500000       1.5095000    -0.033750000       343.89400       1.9740860     0.015286939
       344.00003       291.80775       98611.679       13873.485       1.7100000       3.0172500      0.18825000       343.59000       1.9643397     0.014374057
       349.00000       291.86001       98619.050       13848.914       1.2110000       3.8652500    -0.019250000       343.15500       1.9948594     0.014703145
       354.00001       291.86264       98626.003       13829.865       1.6090000       2.6595000     -0.77275000       343.62400       1.9443747     0.021710858
       359.00002       291.79705       98636.362       13778.736       1.4737500       3.5610000      -1.4507500       343.71700       2.0024428     0.020944147
       365.00003       291.79993       98638.826       13807.745       1.3327500       1.8967500     -0.12500000       344.31900       1.9878501     0.020574852
       370.00000       291.79990       98637.270       13832.109       1.5885000       2.7190000     0.019000000       342.72100       1.9865004     0.018893156
       375.00002       291.79983       98632.034       13859.706       1.6075000       3.1347500     -0.40525000       342.75300       2.0054058     0.015672490
       380.00003       291.80661       98620.387       13898.689       1.3992500       2.1062500      0.21600000       343.27600       1.9897803     0.020690649
       385.00000       291.78509       98613.278       13903.010       2.5662500       1.8802500      0.34125000       343.31500       2.0182186     0.014947870
       390.00002       291.72613       98604.157       13882.071      0.81725000       1.6997500      0.40600000       343.98300       1.9935823     0.014231798
       395.00003       291.83679       98601.901       13949.601       1.7267500       1.6625000      0.63900010       343.75600       1.9764337     0.018772139
       400.00000       291.89607       98599.771       13999.399       2.3847500       2.5875000      0.30625000       344.16000       2.0274153     0.015166464
       405.00002       292.02561       98598.719       14108.015       1.9192500       2.5955000     -0.81575010       343.53500       1.9919674     0.018605451
       410.00003       292.11842       98599.552       14194.256       1.5435000       3.7292500     -0.53500000       342.81600       1.9965979     0.014160988
       415.00000       292.17436       98601.606       14261.624      0.88050000       2.1102500     0.057500000       343.46500       2.0310746     0.023491663
       420.00002       292.14293       98603.913       14281.079       1.8860000       1.9252500      0.96575000       344.41700       2.0626136     0.015878191
       425.00003       292.18492       98610.264       14343.268       1.4335000       1.8065000      0.18850000       343.97000       1.9705806     0.019175865
       430.00000       292.25610       98621.015       14430.547       1.1670000       2.9535000      0.14575000       342.55500       1.9499478     0.014362890
       435.00001       292.30016       98630.238       14481.316       1.7880000       1.8960000     -0.30375000       343.52000       2.0012400     0.015236505
       440.00003       292.31312       98632.769       14494.076     -0.98350010       2.5875000      0.48675000       343.26200       1.9974963     0.015514006
       445.00000       292.26967       98628.657       14430.461      0.69275000       3.5827500     -0.66650000       342.89300       1.9951106     0.016087950
       450.00001       292.24976       98622.005       14397.262       1.6285000       3.0185000    -0.037000000       343.18700       2.0003196     0.015130949
       456.00002       292.22388       98602.031       14366.853      0.46625000      0.39825000       1.6472500       343.82200       2.0126269     0.015258017
       460.99999       292.19417       98592.314       14315.389       1.6567500       1.8130000     -0.25800000       343.46500       2.0142158     0.014903832
       466.00001       292.19652       98578.792       14270.123       2.0160000       1.1350000      0.13725000       343.58000       2.0061864     0.013992861
       471.00002       292.15403       98576.575       14207.497       2.2035000       3.0890000     -0.78275000       343.03500       2.0135914     0.014527262
       475.99999       292.07083       98594.653       14099.029       1.5257500       2.1105000    -0.023750000       343.49200       1.9906357     0.015173178
       481.00001       291.98922       98597.306       14009.004      0.10750000       1.5875000      0.74375000       343.46100       2.0255359     0.016166439
       486.00002       291.84993       98594.107       13901.001      0.69250010       1.7095000    -0.031750000       343.86400       1.9816375     0.015210302
       490.99999       291.77132       98595.958       13838.317       1.3280000       2.4930000     -0.57075000       343.52800       2.0130904     0.021995506
       496.00001       291.71920       98588.690       13787.126       1.8162500       3.0572500     -0.43025000       343.35500       1.9784283     0.014735115
       501.00002       291.68200       98588.254       13769.019       2.3182500       2.3227500     -0.11325000       342.98400       1.9859566     0.015046881
       506.00003       291.70071       98603.243       13807.393       2.6185000       1.7830000     -0.36625000       344.53800       1.9922139     0.015284595
       511.00000       291.70097       98607.859       13841.645       1.3057500       1.6290000     0.063500000       344.08200       2.0126234     0.020587141
       516.00002       291.71448       98608.583       13919.404       2.5437500       2.8770000     -0.49900000       343.02800       2.0071844     0.015825065
       521.00003       291.70328       98606.147       13954.088       1.5415000       1.3355000      0.64275000       343.53500       2.0196143     0.021491506
       526.00000       291.66545       98590.109       13950.262       2.8552500       2.4892500     0.090750000       343.99600       2.0103613     0.019302944
       531.00002       291.64524       98587.555       13980.042       2.5090000       1.2442500      0.31725000       343.42600       1.9883286     0.017276915
       536.00003       291.63805       98589.645       14036.567       1.9112500      0.82725010     -0.64275000       343.17700       1.9988447     0.014386903
       541.00000       291.59721       98594.167       14038.471       3.1360000       1.7157500     0.075000000       343.27600       2.0041761     0.019184466
       547.00001       291.52414       98616.444       14029.097       2.8580000       1.5337500    -0.034000000       343.27000       1.9748622     0.015002450
       552.00002       291.48444       98625.286       14017.375       2.1372500       1.3532500      0.33650000       343.50400       1.9961031     0.020369324
       557.00000       291.41005       98629.317       13945.317       1.4967500       2.7495000     -0.78625010       343.00200       1.9975963     0.015684012
       562.00001       291.37765       98632.573       13904.010       1.9382500       1.4427500     -0.53750000       343.08300       1.9929431     0.013858018
       567.00002       291.38764       98634.245       13891.040       3.7745000       2.6850000     -0.35375000       344.06000       1.9905059     0.015269774
       572.00000       291.40170       98630.165       13874.447       2.9555000       1.4427500     0.044000000       343.75600       1.9607120     0.020472587
       577.00001       291.43882       98621.174       13840.170       2.7847500       4.0662500     -0.55725000       342.66800       1.9783820     0.019094857
       582.00002       291.45910       98612.389       13830.121       2.1417500       4.3730000     -0.66325000       343.04700       1.9501537     0.019572623
       586.99999       291.49529       98591.489       13845.807       2.1295000       1.5595000     -0.26200000       343.66300       1.9959045     0.013912927
       592.00001       291.51144       98585.401       13857.096       2.2102500       1.6880000      0.22450000       343.40300       1.9705336     0.015023972
       597.00002       291.50040       98587.551       13875.316       3.2432500       3.0640000     -0.26275000       342.83900       1.9987142     0.014810612
       601.99999       291.50052       98589.836       13893.612       3.0600000       2.2802500     -0.13600000       342.93600       1.9289223     0.014245975
       607.00001       291.49991       98600.490       13908.022       2.3332500       1.7980000      0.24950000       343.56100       1.9629863     0.014305625
       612.00002       291.49984       98608.571       13938.143       2.7002500       2.3785000     -0.17150000       342.88800       1.9854920     0.019497028
       616.99999       291.50006       98617.613       13987.062       3.8545000       2.7337500      0.32275000       343.20200       1.9834333     0.014183385
       622.00001       291.50006       98623.316       14018.604       1.8855000       1.2870000      0.82075010       343.63700       1.9687943     0.013697751
       627.00002       291.51310       98633.189       14086.109       2.7082500       2.1607500      0.21850000       343.13400       1.9910842     0.020821503
       632.00003       291.49940       98632.258       14080.831       2.9670000       1.8682500     0.029250000       343.41900       1.9907799     0.015875476
       638.00000       291.43543       98620.049       13986.932       1.7455000       1.9000000      0.36725000       343.03700       1.9615240     0.019858160
       643.00001       291.44761       98610.908       13966.315       2.2835000       1.7120000     -0.18625000       343.42800       1.9556918     0.018947426
       648.00003       291.45963       98589.979       13909.322       3.0252500       2.3425000     -0.35525000       342.50600       1.9490337     0.020015549
       653.00000       291.51919       98585.119       13922.813       2.2855000       1.3695000      0.67175000       343.45300       1.9607461     0.019889739
       658.00001       291.70373       98587.898       14041.080       1.0955000       1.1507500     -0.32900000       343.20300       2.0095149     0.015313902
       663.00002       291.73928       98590.824       14065.574       1.7475000       2.8442500    -0.098000000       343.10700       1.9744288     0.019545640
       668.00000       291.71317       98602.108       14066.086       3.4277500       2.1172500    -0.046000000       342.74900       1.9622072     0.015158570
       673.00001       291.70079       98610.097       14069.124       2.4600000       1.8927500     -0.43075000       342.84600       2.0001484     0.016284996
       678.00002       291.60103       98620.899       14022.723       2.6305000       1.5842500     -0.15625000       343.07700       1.9603544     0.020751403
       683.00000       291.57354       98623.032       14017.947       2.1022500       1.7170000     -0.38800000       343.22800       1.9570619     0.015241096
       688.00001       291.60009       98622.009       14049.198       1.3435000       2.4220000    -0.057000000       343.36900       1.9877686     0.015053591
       693.00002       291.60004       98620.731       14053.137       2.0055000       2.7842500      0.83125000       343.37000       1.9524287     0.020771452
       698.00000       291.57774       98613.865       14036.264       1.8395000       2.2470000     -0.28950000       343.49900       1.9819591     0.014411409
       703.00001       291.61037       98606.180       14057.849       1.4170000       1.9802500     0.024000000       343.50100       1.9690515     0.014134281
       708.00002       291.68593       98597.285       14103.955       1.5375000       2.2280000    -0.013000000       343.41500       1.9676937     0.016263376
       713.00000       291.72620       98591.231       14121.679       1.1942500       1.9827500     0.030750000       343.97800       1.9552746     0.021182651
       718.00001       291.78730       98577.047       14148.632       1.1815000       2.7957500     -0.54175000       343.43700       1.9520065     0.014310525
       723.00002       291.83034       98577.803       14172.213       1.9582500       4.5127500     -0.75575010       342.68900       1.9984159     0.014508179
       729.00003       291.84566       98592.310       14175.498       1.9410000       2.6980000      0.75025000       343.42100       1.9779021     0.015075225
       734.00000       291.86552       98601.989       14178.565       1.3385000       3.8185000     -0.66700010       343.17000       1.9631189     0.019564104
       739.00001       291.89309       98620.182       14188.871       2.3387500       2.3420000    -0.056500000       343.43300       1.9861016     0.014874338
       744.00003       291.92308       98627.606       14209.968       2.8100000       2.0017500     -0.50775000       343.03100       1.9646193     0.020367854
       749.00000       291.95469       98632.713       14227.092      0.77075000       2.7952500      0.19175000       343.61300       1.9564423     0.014583967
       754.00001       291.95591       98631.297       14232.031       2.1895000       3.2027500     -0.93900010       343.08600       1.9967809     0.013832258
       759.00003       291.95664       98623.658       14258.917     -0.27050000       4.3395000     -0.98375000       343.29300       2.0076764     0.019919187
       764.00000       291.94812       98614.120       14255.525       1.7095000       3.0245000      -1.0347500       342.87100       1.9907908     0.019578345
       769.00001       291.91500       98595.720       14226.990     0.089000000       2.9580000      0.35325000       343.51400       1.9890838     0.019895059
       774.00003       291.86673       98587.476       14178.576      0.61550000       2.2137500     0.098250000       343.58400       1.9761445     0.014918297
       779.00000       291.80013       98576.571       14107.117       2.9750000       3.1835000     -0.17600000       343.16100       1.9894825     0.014700423
       784.00001       291.77866       98578.967       14067.756       1.4407500       2.2940000     -0.43000000       343.29100       1.9810404     0.013952441
       789.00003       291.75741       98592.258       14017.266       1.8347500       1.1687500     -0.28150000       343.56700       1.9758630     0.013910935
       794.00000       291.71672       98602.030       13963.741     -0.31200000       2.7540000     -0.48950000       342.76700       1.9410994     0.017976902
       799.00001       291.70080       98620.634       13923.211      0.14775000       1.5915000      0.61825000       343.25200       1.9707119     0.013364358
       804.00002       291.69091       98628.022       13910.012       1.5382500       2.5135000      0.35675000       342.91000       1.9870300     0.014288663
       809.00000       291.64933       98631.145       13888.772       1.6010000       1.3235000      0.50900000       343.58600       1.9758323     0.013306307
       814.00001       291.62841       98633.409       13878.533       2.2667500      0.43875000     0.041000000       343.13400       1.9523160     0.015677803
       820.00002       291.65591       98632.179       13915.137      0.84975000       1.9065000      0.18425000       343.33800       1.9752797     0.019258881
       825.00003       291.64475       98625.926       13931.119       1.1435000       2.2742500      0.72200010       343.45300       1.9733932     0.013995113
       830.00000       291.60031       98616.855       13925.494       1.7325000       3.4792500      0.24500000       343.17500       1.9731233     0.014449752
       835.00002       291.57011       98606.438       13929.567      0.80350010       2.0087500      0.18200000       343.25000       1.9691024     0.020478270
       840.00003       291.54400       98587.342       13951.016       2.7197500       3.2867500     -0.50175010       342.77800       1.9731900     0.019571539
       845.00000       291.54560       98584.894       13979.212      0.46500000       2.1337500     -0.75375000       343.35400       2.0351457     0.014204767
       850.00002       291.54440       98587.166       13996.291       1.3180000       2.4565000    -0.010250000       343.09400       1.9745879     0.019874454
       855.00003       291.55530       98606.373       14012.226       1.0495000       1.9445000     -0.29200000       343.26100       1.9189449     0.014444609
       860.00000       291.59369       98616.513       14056.238      0.67700000       1.5545000     -0.11375000       343.27100       1.9720479     0.014191327
       865.00002       291.64425       98624.166       14108.919       1.2405000       1.4415000      0.34800000       343.08100       1.9839450     0.014755466
       870.00003       291.69819       98633.579       14159.908       2.2865000       2.1140000      0.16675000       343.35800       1.9796797     0.014610681
       875.00000       291.73850       98631.801       14191.350       2.9505000       2.6395000     -0.25075000       342.93000       1.9534520     0.014682806
       880.00001       291.79489       98620.040       14240.399       2.1717500       2.0442500    0.0092500000       343.32900       1.9811133     0.019428931
       885.00003       291.95141       98617.714       14354.211      0.61850010       1.7745000     -0.37375000       343.20300       1.9850586     0.014672454
       890.00000       291.97776       98610.836       14347.871       2.0915000       1.9097500      0.56175010       343.17900       1.9740554     0.013976586
       895.00001       291.93519       98601.203       14277.470       3.6095000       3.4102500     -0.56650000       342.96400       1.9587844     0.015285230
       900.00003       291.91878       98595.242       14219.386       3.3512500       1.7777500     0.099250000       342.91500       1.9741009     0.015007005
       905.99999       291.73951       98580.359       13991.364       3.4910000       3.1352500     -0.43225000       343.08600       1.9753475     0.014545934
       911.00001       291.66494       98576.925       13870.342       3.3962500       2.8410000     -0.69525000       342.78500       2.0088922     0.014679153
       916.00002       291.68520       98582.371       13822.746       1.0382500       3.2367500      0.88925000       343.26500       1.9542311     0.014440771
       920.99999       291.69639       98589.681       13771.701       1.7562500       2.2715000     -0.23100000       343.18100       1.9291485     0.014136854
       926.00001       291.74804       98608.484       13749.930       2.5337500       2.6422500      0.18775000       343.06400       1.9754861     0.014294753
       931.00002       291.75680       98618.328       13707.552       2.9325000       2.5520000    -0.034500000       343.22200       1.9771603     0.013825088
       935.99999       291.72752       98630.143       13623.472       2.3990000       2.2265000     0.043750000       343.34800       1.9852679     0.013534556
       941.00001       291.74852       98633.627       13618.288      0.83500000       1.3097500      0.60350000       343.79100       1.9708523     0.013887015
       946.00002       291.77755       98627.696       13660.509       2.6322500      0.65725000      0.42600000       343.81000       1.9943867     0.014159905
       951.00003       291.79838       98620.321       13687.135       1.5985000       2.2892500    -0.070750010       343.20700       1.9527385     0.015155062
       956.00000       291.83679       98602.280       13746.615      0.97975000       3.3207500     -0.29675000       343.27500       1.9789648     0.014203476
       961.00002       291.90820       98592.586       13837.787      0.67050000      0.92925010    -0.068250000       343.80000       1.9780614     0.014482147
       966.00003       292.00230       98580.530       13942.480       1.3600000       1.3475000     0.089500000       343.92000       1.9840494     0.013981025
       971.00000       292.06260       98577.204       14031.934       2.4335000       3.0805000     -0.69750010       342.78800       1.9777523     0.014405227
       976.00002       292.14367       98583.168       14164.505       1.9535000       2.0060000     0.091000010       343.63500       1.9865740     0.013820457
       981.00003       292.22270       98590.587       14285.419       2.2112500       2.6000000     -0.16400000       343.30200       1.9801258     0.014521935
       986.00000       292.26808       98608.621       14400.511       1.3712500       2.7870000     0.021250000       342.83900       2.0027945     0.014437338
       991.00002       292.30752       98618.223       14466.974       1.3360000       3.2415000      -1.0950000       343.19700       2.0219663     0.014639405
       997.00002       292.38997       98631.374       14566.866      0.99600010       2.5987500    -0.053500000       343.11200       1.9735857     0.013737081
       1002.0000       292.42225       98633.481       14569.099      0.85075000       3.6265000      0.33175000       342.93900       2.0324424     0.014310574
       1007.0000       292.38666       98626.941       14436.964       1.0942500       3.0877500     -0.29775000       343.15800       2.0142035     0.013984194
       1012.0000       292.40050       98618.780       14384.542       2.2425000       2.5592500      -1.1057500       342.78600       1.9733994     0.014094888
       1017.0000       292.45091       98599.933       14333.399       1.0287500       2.6885000     -0.21125000       342.91300       1.9852959     0.014323676
       1022.0000       292.45730       98590.632       14280.771       1.9232500       1.7172500      0.33525000       343.46800       1.9944238     0.021006531
       1027.0000       292.45610       98578.013       14264.271      0.66300000       2.6040000    -0.010500000       343.06500       1.9920114     0.013920094
       1032.0000       292.45220       98577.168       14223.385      0.97025010       1.9917500      0.55025010       343.31600       1.9693673     0.016069346
       1037.0000       292.39170       98589.128       14123.383      0.66150000       3.2705000      0.21725000       343.08500       2.0098738     0.013952606
       1042.0000       292.38915       98597.838       14097.061      0.92825000       2.1092500      0.57000010       343.60400       1.9750887     0.013852325
       1047.0000       292.43692       98618.943       14118.779       2.5392500       1.1432500     -0.44150000       343.75300       2.0011711     0.014081343
       1052.0000       292.45686       98624.985       14122.098       2.3430000       3.0092500    -0.084250000       343.25600       1.9640308     0.015444185
       1057.0000       292.50751       98625.391       14171.813       2.2232500       3.5045000     -0.63650000       342.69200       1.9950456     0.014251360
       1062.0000       292.51003       98620.469       14180.460       1.9532500       2.9460000      0.24500000       343.18200       2.0133870     0.015124405
       1067.0000       292.44893       98600.812       14128.977       1.1755000       2.0555000     -0.40800000       343.41600       1.9896133     0.015590731
       1072.0000       292.44281       98590.115       14137.027      0.59075000       1.7505000      0.24950000       343.66200       1.9880492     0.014956870
       1077.0000       292.43017       98570.196       14165.804       1.3285000       2.4417500      0.57250010       343.56300       1.9890669     0.014489760
       1082.0000       292.44778       98571.657       14198.102      0.63300000       3.1735000     -0.92625000       343.12500       1.9890524     0.014540252
       1088.0000       292.55261       98601.237       14323.283       1.8750000       3.0142500     -0.28875000       342.62700       2.0298248     0.015446602
       1093.0000       292.57034       98603.814       14315.262      0.79300000       2.0245000      0.64200000       343.56600       1.9963312     0.014367704
       1098.0000       292.56965       98603.362       14245.693       1.1362500       1.1785000     0.039500000       343.33800       2.0072571     0.014227354
       1103.0000       292.54675       98609.671       14178.655       1.1145000       1.8932500      0.14325000       343.20500       2.0084819     0.014158460
       1108.0000       292.45935       98604.029       14024.112       1.3437500       1.8455000      0.12425000       343.15200       1.9860196     0.014021094
       1113.0000       292.42536       98603.873       13943.511       2.7602500       4.2985000      -1.2365000       343.13700       2.0202493     0.014820267
       1118.0000       292.41188       98624.779       13910.481       2.9982500       2.6147500     -0.38200000       343.33200       1.9824712     0.014443669
       1123.0000       292.38194       98622.928       13844.380       1.8657500       1.7682500      0.23850000       343.58700       1.9999895     0.014002967
       1128.0000       292.36934       98597.930       13769.450       2.4955000       3.2075000     -0.38275000       342.88500       2.0047352     0.013786663
       1133.0000       292.33355       98589.298       13715.993       1.3172500       2.3625000      0.45650000       343.67500       1.9644591     0.013728565
       1138.0000       292.25999       98578.278       13642.744       1.1495000       2.5800000     0.066500000       343.46500       1.9746114     0.014552046
       1143.0000       292.22660       98577.582       13618.461       1.3782500       2.8585000      0.25025000       343.45300       1.9490978     0.013521275
       1148.0000       292.19025       98585.401       13629.752       1.3175000       2.0662500     -0.23100000       343.44500       2.0065398     0.013838912
       1153.0000       292.19295       98594.358       13650.165       2.7975000       2.9640000   -0.0037500000       343.39200       1.9731154     0.014000707
       1158.0000       292.24287       98615.168       13710.385       3.1707500       3.0765000     -0.14975000       343.15600       1.9919205     0.015553991
       1163.0000       292.26292       98620.660       13738.027       2.6465000       3.0980000      0.20775000       343.40600       1.9882459     0.014541755
       1168.0000       292.28837       98622.849       13762.057       1.5755000       2.4102500      -1.0417500       343.26500       2.0152457     0.015189392
       1173.0000       292.31805       98621.333       13791.261       3.4522500       3.1720000      0.52675000       343.74600       1.9998506     0.014325152
       1179.0000       292.34565       98607.797       13812.113       2.6987500       3.5057500     -0.40025000       342.84800       1.9849647     0.013914182
       1184.0000       292.36544       98597.963       13835.088       2.3907500       2.8172500     0.011250000       343.47500       1.9826771     0.013803226
       1189.0000       292.40279       98583.656       13871.514       1.4950000       2.5650000      0.45000000       343.53000       1.9568110     0.014904076
       1194.0000       292.41381       98582.169       13899.327       2.8992500       4.8100000      0.33875000       343.52100       2.0062776     0.020472389
       1199.0000       292.40892       98580.752       13927.340       2.3315000       2.5980000      -1.1482500       343.15300       2.0096504     0.014493427
       1204.0000       292.39024       98589.063       13930.766       2.4052500       2.5397500     -0.12550000       342.84600       2.0059464     0.014676854
       1209.0000       292.32613       98616.941       13909.954       2.6142500       1.9855000      0.34050000       342.86700       1.9836579     0.014436272
       1214.0000       292.36192       98622.584       13935.973       1.9225000       2.3397500      0.47100000       343.22300       2.0035454     0.014170607
       1219.0000       292.44423       98622.941       13974.847       2.2590000       1.6252500      0.57925000       343.56300       2.0041919     0.014847265
       1224.0000       292.47398       98620.478       13981.193       1.7797500       2.9437500      0.28300000       343.30800       1.9751212     0.018677585
       1229.0000       292.56511       98608.180       14016.926       2.2915000       2.6835000      0.50025000       343.35800       1.9960595     0.014838077
       1234.0000       292.57857       98598.347       14015.117       2.3527500       2.2570000      0.10525000       343.43500       2.0079293     0.014976081
       1239.0000       292.50582       98585.326       13969.400      0.55250000       2.4020000       1.1285000       343.34500       1.9566471     0.014369592
       1244.0000       292.47562       98580.125       13914.325      0.62725000       3.7687500      0.77875010       343.35400       1.9924147     0.015230939
       1249.0000       292.45298       98572.228       13853.800       2.2007500       3.2197500     -0.73000000       343.23500       2.0017261     0.014632488
       1254.0000       292.43294       98574.592       13794.889       1.8890000       2.3885000    0.0097500000       343.36700       1.9962017     0.014850981
       1259.0000       292.42359       98589.108       13710.618      0.74950000       2.6272500     -0.47250000       343.39200       1.9472609     0.013843685
       1264.0000       292.35643       98596.101       13618.042       2.7000000       2.5017500     -0.49425000       343.19300       2.0025651     0.014525279
       1270.0000       292.25034       98607.422       13506.747       2.6315000       2.5015000      0.34500000       343.41100       1.9995582     0.014735828
       1275.0000       292.19074       98609.179       13449.868       4.3980000       1.4702500      0.68600000       343.07900       1.9564884     0.014218897
       1280.0000       292.08189       98607.549       13370.621       1.1435000       1.3510000      0.68575000       344.01800       1.9891342     0.014481756
       1290.0000       292.09382       98589.744       13373.043       3.0285000       1.4122500    -0.033250000       343.15300       1.9691861     0.014213966
       1295.0000       292.11592       98578.902       13364.190       2.0165000      0.15050000      0.35800000       343.80100       1.9888722     0.014722458
       1300.0000       292.14486       98577.164       13376.361       3.3790000      0.62550000     -0.29925000       343.38400       1.9903448     0.013890120
       1305.0000       292.20047       98589.390       13414.952       3.5110000      0.49800000     0.092000010       343.46200       1.9247821     0.013473024
       1310.0000       292.25013       98595.340       13462.068       3.5717500       1.1105000      0.10700000       343.37700       1.9631744     0.014160453
       1315.0000       292.29978       98601.276       13520.708       1.6545000       1.5315000      0.22800000       343.95400       1.9437971     0.013746076
       1320.0000       292.35499       98612.681       13590.101       1.3860000       1.4535000      0.35275000       344.25300       1.9591418     0.014302668
       1325.0000       292.38359       98613.055       13670.848       2.6452500       1.3757500     -0.11875000       343.58700       1.9903599     0.014892982
       1330.0000       292.39479       98607.222       13768.549       3.7127500       2.3017500     -0.47225000       343.29700       1.9804340     0.014713996
       1335.0000       292.44663       98591.037       13891.197       2.5287500       2.0355000     -0.11925000       344.01800       1.9720774     0.012964093
       1340.0000       292.49594       98583.649       13967.735       2.2250000       2.1627500     -0.49600000       343.83700       1.9612172     0.014252460
       1345.0000       292.57148       98573.196       13996.096       3.1642500       2.4905000     0.014250000       343.60800       1.9919912     0.015135234
       1350.0000       292.65100       98571.554       14043.754       3.7330000       3.6122500    -0.046000000       343.32700       2.0095141     0.013520991
       1355.0000       292.82012       98588.023       14141.230       3.0487500       1.8797500      0.58275000       343.66900       1.9768462     0.013326509
       1361.0000       292.83247       98597.654       14116.599       4.1812500       3.1550000     -0.60325000       343.13800       1.9910812     0.014826527
       1366.0000       292.70014       98607.473       13992.669       4.0065000       2.4405000     -0.11975000       343.34000       1.9773142     0.013705481
       1371.0000       292.64882       98613.147       13935.164       2.2897500       2.6287500     -0.24525000       342.87400       1.9608903     0.014299830
       1376.0000       292.47139       98615.821       13794.762       1.5005000       1.7397500     -0.36050000       343.78500       1.9492668     0.014225530
       1381.0000       292.40813       98611.267       13719.946       1.1757500      0.88925000      0.23400000       344.42000       1.9618892     0.014231829
       1386.0000       292.51065       98595.073       13756.993       1.5687500       1.0977500      0.92900000       343.64500       1.9739139     0.014662664
       1391.0000       292.56084       98588.116       13763.465       2.2290000       2.5017500     0.021750000       343.37400       1.9909677     0.014754798
       1396.0000       292.62431       98574.717       13758.117       2.4027500       2.1080000      0.41650000       342.99400       1.9577543     0.014845505
       1401.0000       292.66259       98571.516       13753.414       1.5117500       1.9885000     -0.36925000       343.57500       1.9637301     0.014082920
       1406.0000       292.67593       98584.523       13750.050       1.1510000       1.7577500    -0.080250000       343.81300       1.9817866     0.018879603
       1411.0000       292.70597       98591.528       13761.545       1.8270000       2.8242500      0.29175000       343.42000       1.9859351     0.014668294
       1416.0000       292.76200       98603.043       13794.143       1.5247500       1.3725000      0.70625000       343.68600       1.9733192     0.014188270
       1421.0000       292.75919       98607.664       13794.723       3.1307500       1.6250000     -0.21800000       343.92100       1.9740657     0.019787288
       1426.0000       292.74952       98610.000       13794.605       1.6690000      0.84900000    -0.097000000       343.99800       1.9706069     0.013252990
       1431.0000       292.70599       98606.499       13787.546       4.4947500      0.15425000      0.86950000       344.33700       1.9653370     0.014169975
       1436.0000       292.57846       98589.664       13753.910       2.7112500       1.9967500    0.0047500000       344.34000       1.9566831     0.013578960
       1441.0000       292.47915       98583.008       13712.384       4.2172500      0.59150000      0.51150000       343.40300       1.9989718     0.019450866
       1446.0000       292.35191       98572.338       13656.560       4.3327500     0.096500000     -0.10925000       343.28400       1.9671417     0.017641038
       1452.0000       292.26248       98572.891       13613.968       3.7790000       1.0050000      0.42000000       343.41900       1.9604433     0.015686916
       1457.0000       292.21014       98592.195       13571.868       3.8917500       2.4410000     -0.42350000       342.88600       1.9667746     0.020101682
       1462.0000       292.17785       98598.422       13534.308       4.1515000       1.1865000      0.31275000       343.54600       1.9630290     0.019639252
       1467.0000       292.19924       98607.421       13511.440       2.9990000       1.4332500     0.027500000       342.78600       1.9584404     0.018566140
       1472.0000       292.19885       98607.605       13495.829       1.2257500       1.1672500     -0.45600000       342.84600       1.9768706     0.020269469
       1477.0000       292.21277       98594.421       13478.091       2.4432500       2.0800000     -0.36250000       343.30100       1.9694734     0.017154859
       1482.0000       292.19918       98587.411       13463.193      0.46950000       2.6705000      0.37125000       343.25500       2.0046200     0.019866476
       1487.0000       292.10979       98573.481       13437.050      0.89225010       2.4307500      0.40975000       343.17700       1.9820965     0.013803167
       1492.0000       292.14445       98572.307       13466.974       1.4302500       1.3537500     -0.17850000       343.10700       1.9811780     0.014991723
       1497.0000       292.25391       98580.519       13546.402       1.6950000       2.0970000     -0.23050000       342.94100       1.9598445     0.014514474
       1502.0000       292.31808       98586.279       13583.040       2.0290000       1.5180000     -0.17775000       343.07600       1.9593388     0.014790612
       1507.0000       292.49168       98602.475       13628.127       3.0282500      0.76900010      0.50300000       343.32300       1.9870050     0.013843104
       1512.0000       292.54322       98609.406       13695.816       3.5712500      0.52550000     -0.39375000       343.68400       1.9610169     0.013330382
       1517.0000       292.48661       98613.591       13762.146       1.3617500      0.62125000     0.070750010       344.11000       1.9547258     0.014106748
       1522.0000       292.43897       98611.117       13793.488       3.0035000       3.4297500     -0.53125000       343.48400       1.9749528     0.014206568
       1527.0000       292.31523       98600.204       13851.227       3.8537500       2.4260000      -1.0532500       343.33100       1.9541538     0.020042617
       1532.0000       292.27314       98592.864       13878.312       2.6187500       1.0417500      0.46875000       344.19000       1.9793326     0.014281909
       1538.0000       292.27734       98573.103       13862.982       3.5175000       2.1067500     -0.58875000       343.47400       1.9565898     0.013120464
       1543.0000       292.22156       98571.845       13803.657       3.2257500       2.0430000      0.19375000       343.90100       1.9642669     0.014468332
       1548.0000       292.17568       98581.422       13713.876       2.6077500       1.2507500    -0.026250000       344.02600       1.9627020     0.015036522
       1553.0000       292.12881       98587.684       13648.558      0.14450000       2.3820000      0.34850000       343.46000       1.9510578     0.014502888
       1558.0000       292.01468       98605.104       13529.682      0.98100010       2.2080000      0.20000000       343.67700       1.9608145     0.013128040
       1563.0000       291.95654       98609.609       13450.560       1.1500000       1.5237500    -0.024250000       343.91900       1.9663915     0.015002790
       1568.0000       291.95719       98609.227       13412.436       1.9810000       1.9025000     -0.25000000       344.08100       1.9387594     0.016313208
       1573.0000       291.93719       98603.755       13382.185       1.8465000       1.3310000      0.43925000       343.53300       1.9676677     0.015815163
       1578.0000       291.90131       98586.764       13338.436       2.4677500       2.2322500    -0.074500000       343.60900       1.9818117     0.013535459
       1583.0000       291.88785       98581.066       13328.112       1.3277500       2.3297500      0.24300000       343.86900       1.9593424     0.013948932
       1588.0000       291.86531       98571.167       13354.963       2.2345000       3.0677500     -0.77100000       343.17000       1.9379149     0.014460160
       1593.0000       291.91479       98574.088       13396.007       1.7460000       2.4802500     -0.31850000       343.46000       1.9147661     0.013630895
       1598.0000       292.02642       98592.880       13460.836       2.2522500       1.4090000      0.16075000       343.91600       1.9646647     0.014468858
       1603.0000       292.08672       98600.333       13508.223       3.6047500       2.7952500     -0.23500000       343.11000       1.9598006     0.014337149
       1608.0000       292.18794       98613.591       13571.342       2.9712500       3.4545000     -0.59375000       343.07200       1.9783663     0.013152050
       1613.0000       292.24569       98612.940       13635.666       2.9932500       1.2622500     -0.71975000       343.57900       1.9862725     0.013856439
       1618.0000       292.26422       98598.635       13703.828       2.0177500       2.2332500     -0.28800000       343.63800       1.9867686     0.013497713
       1623.0000       292.25159       98591.030       13733.444       3.1545000       4.8007500     -0.74600010       343.30400       1.9780473     0.014633144
       1629.0000       292.20212       98572.008       13762.301       3.6320000       2.5957500      0.59725000       343.32200       1.9739392     0.014343222
       1634.0000       292.19210       98572.118       13782.172       3.8675000       3.4617500     -0.30225000       343.09800       1.9647106     0.014016673
       1639.0000       292.15846       98582.465       13783.380       2.7417500       1.5280000      0.26325000       343.61100       1.9914025     0.014130586
       1644.0000       292.11853       98589.250       13736.188       3.4650000       3.1287500    -0.098000000       342.59700       1.9755538     0.014389762
       1649.0000       292.09307       98606.632       13671.152       2.8220000       2.8380000     -0.13500000       342.60100       1.9262923     0.017686292
       1654.0000       292.10204       98610.273       13625.417       2.0322500       2.1887500     -0.24000000       342.67400       1.9707899     0.014249514
       1659.0000       292.08750       98608.761       13520.276       1.3120000       2.7387500     -0.31075000       343.11500       1.9444234     0.014094064
       1664.0000       292.10483       98602.342       13474.030       1.9120000       1.6430000     -0.44350000       343.53400       1.9962230     0.015058492
       1669.0000       292.19708       98585.311       13492.659       2.9397500       1.3780000      0.61525010       343.78900       1.9666616     0.013860879
       1674.0000       292.23798       98580.136       13466.357       2.7090000       1.4532500      0.12350000       343.56000       2.0006080     0.014173961
       1679.0000       292.24491       98574.856       13410.255       2.9212500       1.7720000      0.26075000       343.56300       1.9634604     0.014052554
       1684.0000       292.26498       98571.664       13393.985       2.3155000       1.2322500       1.0555000       343.85800       1.9549438     0.012778368
       1689.0000       292.27706       98575.945       13377.411       3.7542500       3.0045000     -0.97325000       343.57900       1.9705832     0.015254858
       1694.0000       292.34543       98575.122       13415.570       4.1257500       3.2230000      0.15575000       343.31000       1.9772848     0.014943504
       1699.0000       292.44882       98570.058       13494.604       2.0645000       3.1085000      0.74675010       343.66900       1.9502870     0.014639499
       1704.0000       292.48991       98568.971       13566.796       1.1320000       4.1897500     -0.53700000       343.12600       1.9801331     0.013336530
       1709.0000       292.54550       98570.385       13670.947       1.2795000       1.8800000      0.45550000       343.71200       1.9556401     0.014236929
       1714.0000       292.59615       98570.398       13773.804       2.2300000       2.1402500      0.44225000       344.19200       1.9667136     0.013619087
       1720.0000       292.59974       98568.379       13916.126       2.9075000       2.6510000     -0.23500000       343.71200       1.9518398     0.014767701
       1725.0000       292.60958       98574.672       13963.396       3.9277500       3.0170000    -0.059500000       343.00100       2.0022873     0.015690532
       1730.0000       292.66295       98584.279       14014.571       2.9427500       2.0455000      0.39850000       343.78700       1.9470732     0.014297983
       1735.0000       292.65984       98592.484       13998.478       3.9407500       1.1660000     -0.13125000       343.64400       1.9858818     0.020855042
       1740.0000       292.58820       98607.758       13891.814       3.9115000       1.6372500     -0.30375000       343.52800       1.9763295     0.014532467
       1745.0000       292.66035       98610.276       13880.132       2.1455000       1.0660000   -0.0037500000       344.50300       1.9717782     0.022423818
       1750.0000       292.66358       98607.880       13847.760       3.2062500       1.2350000      0.12250000       345.06600       1.9481732     0.014159530
       1755.0000       292.63963       98588.270       13834.658       2.6512500       1.1200000     -0.22250000       344.07500       1.9728383     0.013952288
       1760.0000       292.61219       98582.866       13792.806       2.5185000       1.2620000     -0.39000000       344.21400       2.0011815     0.015945887
       1765.0000       292.56017       98582.364       13729.057       2.7010000      0.79400000      0.45200000       344.73700       1.9398451     0.015138734
       1770.0000       292.42489       98582.486       13612.643       3.6720000       1.4775000      0.23475000       343.52100       1.9490995     0.015733017
       1775.0000       292.43071       98588.145       13596.921       3.3345000       1.4052500      0.73700000       343.79400       2.0281065     0.017383516
       1780.0000       292.48864       98607.799       13590.617       3.6875000       2.1810000      -1.0327500       343.47100       2.0034414     0.019165747
       1785.0000       292.58668       98610.273       13694.245       4.8452500       2.4812500      0.20225000       343.90800       1.9704121     0.015269256
       1790.0000       292.65870       98607.882       13768.237       3.4332500       1.5747500     -0.48175000       343.35900       1.9850782     0.015618506
       1795.0000       292.73090       98591.197       13839.816       3.9895000       1.8122500     -0.26950000       343.60000       1.9588559     0.020934381
       1800.0000       292.76287       98584.029       13905.224       3.5885000       1.4207500    -0.022000000       343.98000       1.9565747     0.013654834
       1805.0000       292.80019       98573.191       13990.746       2.6580000       2.6720000     0.099250000       343.40300       1.9935458     0.014903348
       1811.0000       292.76482       98571.923       14027.745       3.0125000       3.4795000      -1.0117500       343.35500       1.9730679     0.014751151
       1816.0000       292.63995       98590.593       14026.328       3.5202500       1.9445000      -1.1492500       344.43300       1.9645838     0.014091552
       1821.0000       292.53876       98597.285       14004.720       4.9387500       3.2777500     -0.27550000       342.68100       1.9598505     0.016380159
       1826.0000       292.34946       98608.035       13901.508       4.3052500       1.1195000     -0.48950000       343.44300       1.9966028     0.014623312
       1831.0000       292.26405       98608.347       13851.637       2.8832500     -0.25175000      0.42450000       343.88800       1.9659343     0.013614185
       1836.0000       292.22586       98590.890       13817.176       4.2722500       1.1212500     -0.31600000       343.19000       1.9598282     0.015191585
       1841.0000       292.23013       98582.948       13791.853       2.6535000       2.2922500     -0.15600000       343.09000       1.9482769     0.021813247
       1846.0000       292.34439       98569.020       13800.586       2.7587500       2.5485000     -0.50550000       343.05600       1.9483459     0.014874990
       1851.0000       292.41386       98566.826       13796.895       2.0740000       1.4677500      0.88450000       344.25800       1.9495084     0.018601345
       1856.0000       292.54359       98579.005       13793.823       2.6332500       3.4965000      -1.1427500       343.44300       1.9691470     0.016685945
       1861.0000       292.57800       98586.229       13785.093       3.2900000       1.4665000      0.15175000       343.45700       2.0112311     0.014536177
       1866.0000       292.52162       98606.167       13761.698       1.5770000       2.5665000    -0.021250000       343.91200       1.9754433     0.021446886
       1871.0000       292.50024       98609.233       13758.591       2.8900000       2.5397500     -0.32750000       343.32800       1.9989101     0.014822012
       1876.0000       292.41906       98595.369       13763.345       1.5855000       2.8025000     -0.67100000       342.94000       2.0090602     0.015683142
       1881.0000       292.38117       98589.146       13769.711       1.7695000       1.5535000      0.44125000       344.20700       1.9838185     0.014984289
       1886.0000       292.41413       98569.753       13800.046       3.6397500       4.7492500      -1.6720000       343.43600       1.9614222     0.015708847
       1891.0000       292.40274       98565.760       13814.423       3.3915000       3.9015000     -0.30275000       343.06400       1.9824264     0.014784603
       1896.0000       292.39468       98580.599       13840.444       3.1440000       3.4187500      0.30175000       343.62100       2.0000533     0.016029411
       1902.0000       292.34129       98587.782       13823.186       3.5167500       3.1325000     -0.43125000       343.87400       1.9774212     0.018160581
       1907.0000       292.23115       98601.685       13771.610       2.5495000       1.7862500     -0.11150000       344.17500       1.9715999     0.018265447
       1912.0000       292.17483       98603.881       13735.418       3.8447500       1.8730000     -0.23100000       343.49700       1.9777912     0.017894606
       1917.0000       292.11109       98594.046       13662.725       2.4962500       1.7340000     -0.14175000       343.98000       1.9415516     0.018194498
       1922.0000       292.07824       98588.685       13629.703       3.6690000      0.37075000     -0.35075000       344.40900       2.0002509     0.014081128
       1927.0000       292.11285       98573.548       13645.166       1.6722500     -0.59450000      0.12000000       344.45400       1.9621823     0.018309048
       1932.0000       292.09931       98572.320       13623.022       1.2777500     0.076000010       1.1357500       344.66000       1.9654958     0.019741191
       1937.0000       292.06213       98582.335       13583.409       3.6400000      0.59725000    -0.013000000       343.77600       1.9566011     0.019450354
       1942.0000       292.04234       98586.720       13564.376       2.7265000      0.69525000     -0.75325010       344.10900       1.9409620     0.017362232
       1947.0000       292.00524       98601.728       13524.235       3.9922500      0.53700000    -0.025750000       343.68900       1.9515778     0.021515450
       1952.0000       291.98927       98603.873       13517.506       4.8570000      0.27100000       1.1017500       343.23700       1.9555997     0.018914945
       1957.0000       291.98746       98594.008       13536.664       3.9445000       1.9717500     -0.51850000       343.98500       1.9455130     0.018637304
       1962.0000       292.00150       98588.637       13571.745       5.1035000      0.20675000      0.24200000       343.65700       1.9671528     0.015321533
       1967.0000       292.03881       98576.085       13639.820       4.5377500       1.5850000     -0.34300000       343.62900       1.9422211     0.016102446
       1972.0000       292.05897       98572.180       13685.236       5.3635000       1.4100000      0.42800000       342.87200       1.9448643     0.017726319
       1977.0000       292.12149       98570.746       13761.697       3.8032500       1.6872500    -0.048750000       342.92100       1.9679482     0.017858852
       1982.0000       292.11026       98575.288       13787.035       4.0845000       1.5872500     -0.70375000       343.36300       1.9557907     0.018801700
       1987.0000       292.05017       98595.122       13783.163       2.4867500      0.70950000     -0.21300000       343.36700       1.9463364     0.015365536
       1993.0000       291.96704       98598.753       13745.359       2.9280000       1.1747500     0.069750000       343.51200       1.9619522     0.017196621
       1998.0000       291.80831       98601.508       13646.140       2.5327500       1.0160000     -0.47100000       343.66500       1.9357180     0.018891198
       2003.0000       291.75743       98594.740       13614.700       3.3747500       1.0770000     0.041500000       343.45700       1.9373371     0.020110281
       2008.0000       291.74422       98564.868       13597.060       2.6735000     -0.21900000     0.072500010       343.76900       1.9553690     0.016070425
       2013.0000       291.73642       98559.655       13568.347       3.2440000      0.70400010     -0.13075000       343.79000       1.9515048     0.018044596
       2018.0000       291.78790       98560.963       13567.366       3.5597500       2.2677500     -0.22275000       343.36600       1.9390886     0.016405808
       2023.0000       291.81789       98565.994       13559.648       2.0042500       1.0872500      0.55875000       343.76300       1.9385833     0.020079177
       2028.0000       291.84186       98590.956       13524.558       2.1717500      0.83800010      0.51200000       344.01800       1.9475910     0.017857971
       2033.0000       291.86170       98595.869       13513.013       2.6847500      0.89675000      0.50575000       343.93400       1.9543945     0.019942950
       2038.0000       291.89942       98593.189       13532.651       3.3080000      0.56175010     -0.44150000       343.89700       1.9250869     0.015044153
       2043.0000       291.91303       98590.250       13537.802       4.0577500       2.2367500     -0.55750000       343.36400       1.9292834     0.019648235
       2048.0000       291.89936       98572.958       13524.355       4.6770000       1.4545000     -0.14775000       343.21200       1.9515163     0.020905331
       2053.0000       291.89907       98573.129       13540.305       5.1135000       1.7637500    -0.021500000       343.23200       1.9331399     0.015781039
       2058.0000       291.92267       98582.006       13586.819       2.8440000       2.4432500   -0.0020000000       343.44200       1.9304533     0.017281680
       2063.0000       291.89051       98588.236       13604.995       2.3732500       1.1090000     -0.47750000       343.61000       1.9394327     0.017225875
       2068.0000       291.82676       98607.661       13633.106       4.1437500      0.93425010      0.42250000       343.72400       1.9539678     0.019829782
       2073.0000       291.77067       98608.816       13631.327       3.7485000      0.75775000    -0.039750000       343.41000       1.9420166     0.016277544
       2078.0000       291.63736       98601.061       13576.709       4.4202500       1.5940000     -0.11800000       343.17700       1.9085504     0.017644028
       2084.0000       291.62494       98589.215       13587.072       3.8345000      0.45800000     -0.28125000       343.59600       1.9410438     0.017656121
       2089.0000       291.67785       98560.985       13609.205       4.3100000       3.0127500     -0.76475010       342.82100       1.9459315     0.020395168
       2094.0000       291.72611       98561.002       13640.230       2.8780000       1.3705000     -0.10450000       343.76400       1.9390929     0.020616480
       2099.0000       291.83383       98572.564       13707.956       2.4382500      0.50525000      0.92950000       343.85700       1.9935868     0.013849333
       2104.0000       291.91444       98579.191       13759.076       3.2412500      0.10075000     -0.59475000       343.81100       1.9504637     0.016050974
       2109.0000       291.99667       98604.574       13808.620       4.3665000      0.83300010      0.70725010       343.19900       1.9215937     0.019442539
       2114.0000       292.04812       98604.708       13841.971       4.2447500       1.2215000     -0.17500000       343.11100       1.9073672     0.014600113
       2119.0000       292.09679       98586.546       13863.814       2.3892500      0.59025000      0.15150000       343.71800       1.9425627     0.013471075
       2124.0000       292.13765       98580.654       13916.700       2.5347500      0.64325000     0.064000000       342.93500       1.9496683     0.017819504
       2129.0000       292.15449       98566.707       13970.185       2.1345000      0.62475000      0.66325000       343.84700       1.9496833     0.019278502
       2134.0000       292.15560       98569.161       14015.788       3.5837500      0.35350000     -0.20150000       343.02200       1.9340388     0.016121329
       2139.0000       292.16556       98584.150       14112.945       3.1587500      0.94850000     -0.12775000       343.13900       1.9376044     0.014658653
       2144.0000       292.13799       98590.194       14110.382       3.9802500       1.0135000      -1.2305000       343.01300       1.9377820     0.019351567
       2149.0000       292.05869       98603.981       14051.362       2.8692500       1.8672500     -0.23475000       343.32000       1.9461667     0.017939461
       2154.0000       292.00881       98601.769       13981.093       3.9100000      0.81550000      0.10275000       343.49600       1.9517384     0.013512312
       2159.0000       291.94208       98588.164       13833.378       3.4562500     0.059000000     -0.13550000       343.39400       1.9667288     0.023877898
       2164.0000       291.92989       98578.445       13789.645       3.7540000      0.26925000      0.26800000       343.67500       1.9429568     0.018657661
       2170.0000       291.95661       98555.573       13778.711       3.1100000      0.88775000      0.43850000       343.30500       1.9202988     0.014602371
       2175.0000       291.92598       98559.547       13715.802       3.2502500      0.26625000      0.40050000       343.39500       1.9677301     0.013814523
       2180.0000       291.90163       98573.532       13675.486       1.8072500      0.97775010      0.10550000       344.07800       1.9557162     0.013688519
       2185.0000       291.89126       98581.876       13637.659       1.9042500      0.76600000     -0.84925000       343.98600       1.9273885     0.017607343
       2190.0000       291.84375       98604.400       13545.907       2.6807500       1.0005000     -0.91275010       343.39900       1.9567325     0.013102983
       2195.0000       291.83980       98598.576       13530.531       2.0860000      0.83050010    -0.032250000       343.84400       1.9387357     0.019418901
       2200.0000       291.84969       98591.972       13532.458       1.7650000       1.6680000    0.0045000000       343.60300       1.9631431     0.014664460
       2205.0000       291.84512       98566.821       13530.596       1.1040000       1.3160000      0.17125000       343.72200       1.9243950     0.016596235
       2210.0000       291.84397       98561.057       13532.105       2.9292500       2.5220000     0.018500000       343.04500       1.9483378     0.014642987
       2215.0000       291.85510       98563.905       13548.499       1.6635000     -0.19700000      0.49600000       344.11400       1.9494148     0.014293721
       2220.0000       291.89966       98572.880       13600.504       1.9875000      0.17150000      0.28150000       344.25800       1.9369081     0.022187724
       2225.0000       291.92960       98580.356       13646.423       3.5497500       1.6005000      0.75550000       344.24400       1.9790996     0.016609132
       2230.0000       291.95070       98604.911       13681.985       4.0090000       1.0457500     -0.21400000       344.00300       1.9579853     0.013502021
       2235.0000       291.98535       98591.120       13779.495       3.6367500       1.4997500    0.0062500000       343.44000       1.9774444     0.018723693
       2240.0000       292.00684       98585.047       13845.292       3.8870000       1.2710000     -0.51375000       343.13600       1.9430573     0.019840778
       2245.0000       292.00035       98570.102       13904.136       2.7275000       1.8735000     -0.28325000       343.27200       1.9664150     0.013655182
       2250.0000       292.00058       98566.433       13940.392       2.9105000       1.9227500     -0.60400000       343.49400       1.9385417     0.019077869
       2255.0000       291.98489       98579.402       13927.027       2.0127500       2.2895000     -0.64400010       343.30100       1.9222418     0.015505357
       2261.0000       291.99670       98586.584       13939.178       1.4615000       2.6410000     -0.12775000       344.30000       1.9416639     0.015784363
       2266.0000       292.04829       98601.690       13972.115       2.3120000       3.2050000     -0.36300000       342.89500       1.9528690     0.015076458
       2271.0000       292.05720       98603.869       13963.149       1.2650000       1.1967500      0.11400000       343.78300       1.9789280     0.013513785
       2276.0000       292.06984       98592.879       13956.860       2.0300000     0.059000000     0.020500000       344.63500       1.9526641     0.013455706
       2281.0000       292.05740       98584.568       13918.711       2.0712500    -0.064750000      0.74300000       344.13800       1.9578860     0.017901881
       2286.0000       291.94691       98566.238       13774.141       3.3775000      0.95500000     -0.16875000       343.60500       1.9672676     0.017047384
       2291.0000       291.92982       98556.509       13724.441       2.8797500       1.9522500     -0.87350000       342.83700       1.9708896     0.018820085
       2296.0000       291.96361       98549.480       13708.845       2.8045000       1.3005000     -0.89225010       343.22300       1.9592336     0.013030874
       2301.0000       291.99585       98548.019       13713.753       2.6825000       1.6417500      -1.0117500       342.93300       1.9670029     0.013649901
       2306.0000       292.12887       98559.955       13827.929       1.6250000      0.44975000     0.068750000       343.77900       1.9467018     0.015246237
       2311.0000       292.17469       98561.696       13863.897       1.5777500      0.84025000      0.73800000       344.39900       1.9474285     0.015122085
       2316.0000       292.17007       98558.695       13866.378       3.3635000       2.1135000     -0.21400000       343.10800       1.9570275     0.014903508
       2321.0000       292.15758       98560.785       13864.689       2.4660000       1.9947500      0.15575000       343.22700       1.9564568     0.014288805
       2326.0000       292.07525       98554.981       13802.058       2.5697500      0.82700000    -0.041250000       343.77700       1.9237251     0.016417150
       2331.0000       292.03636       98558.596       13781.857       1.8825000       2.3472500     -0.29450000       342.73400       1.9586367     0.019209835
       2336.0000       291.99530       98581.484       13788.736       3.1165000       1.1017500  -0.00025000000       343.30100       1.9231260     0.014096325
       2341.0000       291.98815       98588.835       13788.586       1.9930000       3.1535000     -0.28950000       342.99900       1.9451223     0.014233773
       2346.0000       292.04784       98595.038       13825.180       1.8610000       2.2690000      0.18100000       343.01500       1.9292950     0.021779544
       2352.0000       292.05653       98592.210       13814.307       3.4897500       1.5610000     -0.19225000       342.99500       1.9299060     0.014504074
       2357.0000       292.04470       98566.045       13755.149       1.6012500      0.67850010     0.011000000       344.01000       1.9687512     0.019018469
       2362.0000       292.05471       98560.880       13737.560       1.9932500      0.91750000    -0.035250000       343.93800       1.9532822     0.014380276
       2367.0000       292.06956       98560.734       13746.746       1.9552500      0.65675000      0.84000000       344.79900       1.9568588     0.014560385
       2372.0000       292.04575       98564.601       13700.851       1.3657500     -0.12275000      0.47625000       344.39700       1.9183340     0.015750775
       2377.0000       292.00526       98589.159       13621.776       2.6927500      0.80050000     -0.11450000       343.68600       1.9154276     0.020821420
       2382.0000       291.99526       98595.441       13593.338       2.7412500       1.4052500    -0.056000000       343.75000       1.9294132     0.020482208
       2387.0000       291.94821       98595.627       13528.147       3.1150000     -0.10175000    -0.053250000       344.37700       1.9588012     0.014539801
       2392.0000       291.93594       98590.811       13511.304       3.8625000       1.2965000     0.049500000       343.43200       1.9281161     0.018251876
       2397.0000       291.95484       98566.061       13563.883       2.8472500     -0.67850010      0.18100000       343.72800       1.9082251     0.019807614
       2402.0000       292.01272       98561.027       13616.285       3.5662500       1.1122500     0.032750000       343.16400       1.9266217     0.019062603
       2407.0000       292.10130       98560.740       13681.752       2.8387500      0.86125000     -0.14050000       343.14500       1.9235765     0.014157834
       2412.0000       292.17532       98564.658       13739.996       2.6420000      0.83850000      0.19525000       343.46600       1.9648791     0.019142034
       2417.0000       292.31188       98590.479       13811.874       1.9862500      0.43300000     -0.49675000       343.04800       1.9253076     0.015251955
       2422.0000       292.39481       98595.328       13901.535       2.6265000       1.9732500      0.17425000       343.38200       1.9469381     0.013187877
       2427.0000       292.43378       98590.703       14005.798       2.1250000       1.9197500     -0.27250000       343.15300       1.9547177     0.020853791
       2432.0000       292.46973       98585.296       14081.962       1.0780000      0.81425010      0.26325000       344.33000       1.9281197     0.017103918
       2437.0000       292.48218       98557.634       14192.519       1.7632500       1.0897500     0.038000000       344.02200       1.9119092     0.019241008
       2443.0000       292.51795       98556.313       14257.237       1.7367500      0.94175000     -0.31950000       344.26500       1.9494889     0.018853567
       2448.0000       292.52927       98573.149       14257.464       1.9525000       1.6695000     0.091750000       344.34000       1.9666015     0.018614281
       2453.0000       292.56582       98577.140       14247.285       1.6020000       2.4550000      0.25175000       343.24600       1.9533499     0.019522533
       2458.0000       292.61854       98594.732       14201.209       2.3375000       2.9122500    -0.030750000       344.00300       1.9339577     0.021710105
       2463.0000       292.68513       98592.866       14177.579       2.0340000       1.2265000      0.42575000       345.36700       1.9646049     0.017655858
       2468.0000       292.77337       98565.367       14126.071       1.8622500       2.1540000     -0.14725000       343.14500       2.0017884     0.018302120
       2473.0000       292.84347       98559.790       14109.321       2.2235000       1.8155000     -0.43250000       343.81300       1.9713355     0.016202817
       2478.0000       292.94071       98555.724       14130.996       1.0825000      0.69600000     0.016250000       344.58100       1.9881412     0.014666586
       2483.0000       292.98788       98560.495       14127.639       2.7387500       1.3090000     -0.34425000       344.53700       1.9449234     0.024570421
       2488.0000       293.01130       98584.830       14125.594       1.6322500     -0.57425000    -0.068000000       344.51400       1.9383697     0.019966026
       2493.0000       293.00843       98590.263       14119.531       2.4005000      0.39275000     -0.24350000       343.77200       1.9054866     0.024715025
       2498.0000       292.95818       98594.799       14096.213       2.7945000      0.96400000     -0.55200000       344.18000       1.9662201     0.018114855
       2503.0000       292.93821       98589.992       14098.291       2.9320000       1.1092500     -0.37150000       343.51700       1.9743770     0.018899286
       2508.0000       292.90044       98561.846       14122.251       3.7032500      0.48625000    -0.069500010       344.19700       1.9620499     0.022444227
       2513.0000       292.88658       98561.118       14121.893       2.9535000       2.7360000     -0.75475000       344.08400       1.9662572     0.018162047
       2518.0000       292.88900       98571.704       14128.584       2.1102500       1.9185000     0.057000000       344.71600       1.9362490     0.021640832
       2523.0000       292.90533       98577.600       14115.868       2.6710000       3.9990000    -0.048250000       343.43100       2.0033271     0.014115436
       2528.0000       292.93090       98603.105       14079.285       3.0115000       2.5357500      0.98525010       343.48000       1.9370876     0.019864055
       2534.0000       292.97555       98604.304       14037.056       3.6967500       1.9110000     -0.79375000       343.45800       1.9313975     0.018065021
       2539.0000       293.04810       98586.676       14001.140       3.1530000       1.1595000     -0.14700000       344.40100       1.9544122     0.021158120
       2544.0000       293.07948       98580.557       13946.600       3.3400000      0.56675000     0.088250000       344.74900       1.9205568     0.020094700
       2549.0000       293.12882       98566.924       13871.590       4.5612500      0.57400000    -0.035750000       344.20100       1.9191324     0.021887119
       2554.0000       293.08382       98569.190       13812.716       3.4540000       2.2537500     -0.50000000       344.47600       1.9463634     0.022823520
       2559.0000       292.96885       98586.109       13747.904       3.6507500       1.9230000     -0.38400000       343.63800       1.9795544     0.013945674
       2564.0000       292.89028       98588.402       13692.491       3.1402500      0.54750000    -0.068500000       343.40600       1.9761014     0.020478631
       2569.0000       292.76279       98594.826       13659.204       3.3697500      0.73300000     -0.52875000       343.91900       1.9866919     0.020125579
       2574.0000       292.67216       98588.696       13587.366       3.6142500       2.5520000     -0.55600010       343.58000       1.9365212     0.018997672
       2579.0000       292.59760       98563.694       13484.756       3.8747500       3.2795000     -0.18950000       343.83100       1.9178101     0.018064832
       2584.0000       292.56532       98561.273       13432.178       3.7507500       2.3175000      0.24925000       343.59100       1.9369126     0.021325681
       2589.0000       292.55821       98561.473       13376.094       5.0607500       2.4847500      0.12175000       343.13700       1.8585277     0.023094953
       2594.0000       292.51794       98567.894       13344.079       4.6762500       2.8772500     -0.57050000       342.69000       1.9458662     0.019480460
       2599.0000       292.51015       98593.334       13359.312       3.5190000       2.2070000     -0.37325000       343.23100       1.9265309     0.018650549
       2604.0000       292.48166       98595.132       13346.135       3.0292500       2.6585000     -0.45450000       343.08200       1.9318519     0.017205302
       2609.0000       292.40284       98588.924       13318.573       3.1212500       2.4907500     -0.49825000       342.71300       1.9987174     0.013522661
       2614.0000       292.36208       98581.456       13306.612       2.1245000       2.4190000     -0.49400000       343.09100       1.9331306     0.020445233
       2619.0000       292.36342       98555.770       13302.883       1.6905000       1.7232500     -0.21475000       343.46500       1.9531449     0.017438791
       2625.0000       292.31618       98559.227       13298.398       2.7682500      0.53475000      0.87600000       344.34000       1.9392845     0.020595453
       2630.0000       292.25185       98574.886       13301.210       1.8530000       2.9702500     -0.69300000       343.51900       1.9574769     0.018456412
       2635.0000       292.20151       98578.982       13287.881       3.0967500       2.6707500     -0.44025000       343.43700       1.9790021     0.014074978
       2640.0000       292.15057       98594.946       13268.813       1.8027500       1.7665000      0.11225000       343.11900       1.9632520     0.013451543
       2645.0000       292.09965       98571.187       13261.909       1.7470000       2.1360000     -0.31425000       343.38400       1.9612704     0.013366105
       2650.0000       292.04948       98562.517       13246.326       1.9532500       1.8887500    -0.015000000       343.68400       1.9440942     0.019906155
       2655.0000       291.95462       98559.246       13202.002       2.0135000       1.9442500     -0.65100000       343.24400       1.9364701     0.019397395
       2660.0000       291.93113       98557.788       13208.025       1.5737500       1.4582500    -0.075500000       343.75500       1.9318492     0.017466583
       2665.0000       291.94452       98561.247       13235.895       1.4690000       2.1050000      0.52650000       344.47800       1.9579007     0.018045755
       2670.0000       291.99249       98577.109       13277.961       2.9725000       2.7495000     -0.15500000       343.64400       1.9844318     0.017031968
       2675.0000       292.02472       98578.747       13306.498       1.8995000       1.8425000     0.016500000       343.56200       1.9658831     0.019961504
       2680.0000       292.10087       98577.823       13366.549       1.5777500       2.1830000      0.30550000       343.85600       1.9454355     0.018832979
       2685.0000       292.16143       98556.623       13412.931       1.3395000       1.6475000      0.38375000       344.28000       1.9881847     0.022168908
       2690.0000       292.20195       98551.860       13451.693       1.2510000       2.6600000      0.39625000       343.24900       1.9439712     0.020719769
       2695.0000       292.25607       98556.778       13509.638       2.1047500       2.4942500     0.052000000       343.34300       1.9417748     0.017896457
       2700.0000       292.30689       98558.428       13575.060       1.9752500       2.3835000     -0.28575000       342.98900       1.9795333     0.018757935
       2705.0000       292.36022       98578.890       13669.725       2.1677500       1.7727500     -0.12650000       343.76200       1.9755591     0.018101053
       2711.0000       292.36055       98584.927       13699.608       3.0962500       1.0910000     0.048250000       343.36300       1.9447542     0.014226185
       2716.0000       292.32441       98567.439       13705.681       2.8635000       2.3880000   -0.0080000000       343.27800       1.9879927     0.013796245
       2721.0000       292.30318       98563.689       13690.036       2.3305000      0.75725000     -0.32150000       343.32700       1.9699792     0.013381356
       2726.0000       292.20666       98556.008       13566.606       2.4592500       1.9897500      0.11400000       343.35500       1.9662209     0.026817721
       2731.0000       292.18014       98557.765       13513.079       2.4520000      0.48325000     -0.26700000       343.38100       1.9413184     0.019679411
       2736.0000       292.22045       98585.774       13496.170       3.6720000    -0.026000000      0.12925000       343.63800       1.9549748     0.013724693
       2741.0000       292.25170       98590.141       13483.099       2.4215000       1.3157500     -0.23900000       343.56500       1.9700483     0.013083970
       2746.0000       292.30999       98580.421       13505.515       2.3732500      0.31050000      0.11750000       343.87300       1.9164979     0.015382496
       2751.0000       292.35941       98576.124       13511.221       3.0930000       2.1365000      0.14375000       343.50100       1.9207535     0.020214242
       2756.0000       292.43836       98547.802       13522.788       2.6932500       1.7527500     -0.49325000       344.10500       1.9181847     0.014186974
       2761.0000       292.46554       98544.250       13520.123       2.8747500       2.6910000     -0.37550000       344.13900       1.9222263     0.020585477
       2766.0000       292.48363       98571.423       13504.884       1.5400000       1.6220000      0.59150000       344.37200       1.8988036     0.016517456
       2771.0000       292.45938       98578.000       13488.422       3.0975000       1.3095000     0.080000010       344.64400       1.9313660     0.014017489
       2776.0000       292.34018       98589.420       13450.675       1.6685000      0.82575010      0.49850000       344.32500       1.9814538     0.013763183
       2781.0000       292.28096       98589.544       13435.040       2.3482500       1.6505000     -0.20200000       343.95600       1.9669563     0.014454939
       2786.0000       292.21914       98557.069       13435.591      0.83925000       2.2317500      0.68250000       343.85100       1.9641795     0.019598122
       2791.0000       292.18240       98550.037       13428.529       1.9250000       2.6357500     -0.18575000       344.09700       1.9632353     0.013062599
       2796.0000       292.18607       98556.804       13426.699       2.1292500       2.0250000    -0.015250000       343.91900       1.9927127     0.013160946
       2802.0000       292.20094       98560.043       13431.432       1.6975000       2.0272500     -0.51500000       344.28200       1.9600765     0.014330936
       2807.0000       292.18337       98582.220       13379.402      0.41450000       1.7887500     -0.10975000       344.23100       1.9845516     0.013824706
       2812.0000       292.25883       98584.486       13436.482       2.1590000       1.9525000    0.0017500000       344.40500       1.9506734     0.013751610
       2817.0000       292.43327       98566.201       13590.590       2.2887500       1.6827500       1.0067500       344.83300       1.9649474     0.013226488
       2822.0000       292.54360       98562.863       13687.719       1.8712500       3.3585000     -0.22450000       343.46300       1.9699410     0.014967304
       2827.0000       292.71922       98558.130       13854.418       2.5547500       1.7205000    -0.023500000       344.12500       1.9394516     0.013098760
       2832.0000       292.80542       98558.545       13947.387       1.3445000       2.1237500      0.11400000       344.34800       1.9684042     0.013408484
       2837.0000       292.78190       98577.054       13932.975       2.7080000       3.8960000     -0.69550000       344.19600       1.9940271     0.013075203
       2842.0000       292.81149       98578.164       13986.061       3.1117500       2.2350000      0.22600000       344.27300       1.9174953     0.013815034
       2847.0000       292.81005       98568.619       14054.148      0.42775000       2.8990000      0.33775000       343.79300       1.9910051     0.014226706
       2852.0000       292.85776       98564.183       14121.172       3.2667500       2.5627500     -0.89975010       344.27200       1.9745121     0.014635417
       2857.0000       292.97032       98545.399       14252.538       2.6777500       3.6755000     -0.41325000       343.53800       1.9992204     0.014699127
       2862.0000       293.02658       98547.400       14288.609       2.2465000       3.9895000     -0.49025000       343.89300       1.9895201     0.013007389
       2867.0000       293.07765       98572.246       14278.605       4.5610000       3.0210000     -0.39475000       343.08200       1.9765313     0.013837973
       2872.0000       293.12406       98579.603       14248.518       4.0295000       2.2945000      0.31225000       343.98600       1.9551824     0.013033446
       2877.0000       293.11255       98590.262       14120.096       3.1817500       2.5235000     0.013500000       343.89700       1.9598345     0.013928850
       2882.0000       293.15981       98594.286       14066.111       3.2600000       2.5297500     -0.30225000       343.47100       1.9618720     0.013329689
       2887.0000       293.27112       98578.798       14035.764       1.9847500       2.8885000     -0.51200000       343.71900       2.0007657     0.016010252
       2893.0000       293.33691       98578.814       13999.586       3.8870000       3.7152500     -0.27925000       343.44400       1.9565984     0.014287487
       2898.0000       293.41005       98590.903       14016.936       2.8717500       3.6190000     -0.70800000       343.89400       1.9757060     0.019469285
       2903.0000       293.42092       98591.669       13984.547       3.3295000       3.8567500     -0.62500000       343.30800       1.9858959     0.014390343
       2908.0000       293.36961       98594.774       13916.295       2.4582500       3.5212500     -0.28975000       343.90700       1.9927220     0.020728629
       2913.0000       293.33345       98588.566       13880.992       4.3100000       3.0457500      0.22675000       343.75400       2.0038420     0.018928783
       2918.0000       293.28019       98565.214       13847.877       1.6115000       3.3522500     -0.38100000       343.67400       1.9971186     0.021331093
       2923.0000       293.21393       98559.579       13807.000       2.0782500       2.7507500      0.13875000       344.37700       1.9633481     0.014450895
       2928.0000       293.14994       98557.768       13797.866       1.4372500       2.0230000      0.59600000       344.79800       1.9604646     0.013783846
       2933.0000       293.04809       98559.245       13737.011      0.78575000       1.5300000      0.44525000       344.91200       1.9650659     0.013320250
       2938.0000       292.87761       98577.566       13630.755       1.3952500       5.1977500    -0.031750000       343.40500       2.0495642     0.016031348
       2943.0000       292.79003       98577.239       13548.339       3.1430000       1.9722500     0.024000000       343.77500       1.9860524     0.014448781
       2948.0000       292.69251       98567.593       13428.150      0.61650000       2.6980000     -0.18775000       344.35800       1.9538879     0.012893023
       2953.0000       292.66760       98563.001       13381.931       1.9752500       3.8197500     -0.93150000       344.12700       1.9997368     0.013899938
       2958.0000       292.75461       98544.880       13389.517      0.32225000       3.1785000    -0.020250000       344.06300       1.9333356     0.017099477
       2963.0000       292.75870       98548.822       13367.876     -0.14775000       2.7580000     -0.95125000       343.52900       2.0085258     0.018002618
       2968.0000       292.74616       98574.542       13361.652       1.6215000       3.2900000      -1.1335000       343.67800       1.9711730     0.017536338
       2973.0000       292.75606       98579.549       13369.926       2.5367500       3.3450000     -0.73525010       343.75500       1.9785419     0.021914213
       2978.0000       292.76548       98589.645       13369.521       3.2805000       2.9270000     -0.53050010       343.19700       1.9816331     0.016959474
       2984.0000       292.73284       98585.926       13382.606       2.4900000       2.3452500    -0.045250000       344.33400       1.9782131     0.020532940
       2989.0000       292.73196       98555.706       13440.704       3.4415000       2.3450000     -0.19925000       343.70100       1.9812748     0.019100611
       2994.0000       292.66484       98557.751       13446.645       2.8200000       2.9677500      0.27425000       343.66100       1.9829703     0.017165266
       2999.0000       292.51242       98574.617       13422.726       2.5390000      0.80250000      0.91700010       344.43900       1.9554462     0.018731299
       3004.0000       292.43088       98578.647       13404.353       2.6800000       1.2480000      0.12400000       344.64500       1.9714610     0.015620642
       3009.0000       292.32929       98595.262       13351.877       5.6060000       4.2517500     -0.83675000       343.33100       2.0030982     0.021502999
       3014.0000       292.32375       98591.339       13372.535       2.1415000       2.8225000      0.65875010       343.90500       1.9544982     0.019238464
       3019.0000       292.39750       98561.427       13437.578       2.2335000       5.7590000     -0.29050000       342.99000       1.9615669     0.016240376
       3024.0000       292.40715       98562.553       13448.505      0.38475000       3.9992500     -0.33000000       343.56400       1.9245257     0.023195404
       3029.0000       292.45119       98573.673       13483.641       1.5945000       4.7827500      -1.2007500       343.00200       1.9832388     0.020523335
       3034.0000       292.47197       98576.601       13494.338       2.0217500       1.4545000     -0.41325000       344.17700       2.0018130     0.013313249
       3039.0000       292.43522       98595.916       13444.018       1.6177500       2.7590000     -0.45200000       343.63400       2.0374617     0.016575200
       3044.0000       292.46327       98590.047       13452.491       3.4942500       3.6967500     -0.27475000       343.66400       1.9097818     0.014191383
       3049.0000       292.53264       98557.137       13491.324       1.1735000       2.4500000      0.86675010       344.21500       1.9703457     0.017257815
       3054.0000       292.60142       98554.312       13542.665       1.7042500       1.9967500     -0.91600010       343.84900       1.9730455     0.019707978
       3059.0000       292.69608       98555.961       13614.220       1.4512500       3.7030000     -0.61900000       343.78000       1.9782310     0.018431778
       3064.0000       292.74702       98563.276       13665.278       1.4887500       1.5770000      0.27125000       344.02000       1.9788578     0.017870510
       3069.0000       292.81470       98595.030       13743.276       1.1195000       1.4697500     -0.30375000       343.87100       1.9868882     0.020856913
       3075.0000       292.81521       98592.764       13780.865       1.2722500       2.1417500     -0.59100000       343.63200       1.9800712     0.020002536
       3080.0000       292.75785       98574.991       13778.797       2.0247500       1.4477500      0.26650000       344.08200       2.0253339     0.020614020
       3085.0000       292.71627       98573.047       13771.461       1.6505000       2.4170000      0.48300000       343.94400       2.0077089     0.014801193
       3090.0000       292.65634       98562.429       13759.710      0.16000000       2.4612500     0.082750010       344.03000       1.9719772     0.014791211
       3095.0000       292.58406       98580.314       13680.203       1.1505000       3.2792500     -0.46475000       343.50800       1.9820525     0.014004242
       3100.0000       292.50502       98584.290       13607.179      0.73975000       3.1047500      0.37225000       343.51000       2.0000468     0.014763465
       3105.0000       292.35429       98568.259       13473.447       2.3525000       2.1472500     -0.55075000       343.81200       1.9491103     0.014924789
       3110.0000       292.28127       98564.057       13396.258      0.51275000       2.8175000     -0.38125000       343.91500       2.0026050     0.018864234
       3115.0000       292.24512       98562.300       13347.378       1.2227500       5.1865000     -0.52975000       343.10500       1.9739128     0.014996755
