MIRICO/SHELL project - Processed LDS file generated on
Tue Jul 18 13:47:54 2017
Time stamp for record start
05/11/2017  15:22: 6.0000
Nb of points in the record
         511
Beam position index
       1.0000000
Beam angle (degrees)
      -18.435000
Open Path length (m)
       34.890000
****************** Temporal data record ************************
Elapsedtime_sec Temp_K Press_Pa Humidity_ppmv WindX_m/s WindY_m/s WindZ_m/s Speedofsound_m/s CH4vmr_ppmv CH4vmrerror_ppmv  
      0.00000000       292.70864       98561.325       13406.325      0.76900010       2.0482500    -0.020000000       344.27900       2.0020882     0.013908912
       5.0000131       292.75267       98557.668       13407.034       1.2850000       1.3747500     -0.30750000       344.88600       2.1422003     0.021503947
       9.9999860       292.81282       98559.015       13435.110       1.2100000       1.3595000     -0.36525000       344.01000       2.0700193     0.017840985
       14.999999       292.85478       98573.238       13486.746      0.54250000       1.5987500      0.23950000       344.14600       2.0221562     0.016399623
       20.000012       292.90580       98577.744       13524.061       2.1815000       2.1032500    -0.063500000       343.84400       2.0863279     0.018372677
       24.999985       293.01478       98580.361       13588.513       1.0770000       2.0692500    -0.087250000       344.36800       2.0633385     0.017539760
       29.999998       293.07220       98577.002       13636.550       2.1137500       2.3795000     -0.64375000       344.34600       2.1085972     0.022405841
       35.000011       293.10495       98555.379       13672.847      0.90475000       1.6167500      0.47150000       344.47100       2.0861362     0.018049149
       39.999984       293.11235       98552.010       13687.933       2.1017500       1.4040000    -0.060500000       345.09500       2.0746118     0.016903491
       44.999997       293.03762       98558.229       13659.460       2.0982500       1.7967500     0.072750000       344.23900       2.1346272     0.020815294
       50.000010       293.03996       98559.391       13682.661       1.4642500       2.9942500     -0.26675000       344.01600       2.0992090     0.018684276
       54.999983       293.05059       98577.085       13711.129       2.6470000       1.0787500     0.014750000       344.20900       2.1049383     0.019082160
       59.999996       293.09402       98579.328       13749.759       2.9105000       2.1475000      0.45675000       343.89500       2.1069288     0.018323969
       65.000010       293.23448       98555.311       13843.620       2.7725000       1.8557500      0.15750000       343.98200       1.9649207     0.014219439
       69.999982       293.32227       98551.982       13918.723       3.7085000       1.0090000      0.25125000       343.99300       2.1284413     0.021287720
       74.999996       293.42892       98557.879       14008.942       1.8620000       2.5090000      0.25875000       345.68900       2.1171511     0.032707569
       80.000009       293.47470       98559.126       14050.075       1.4905000       1.8907500     -0.23325000       344.36800       2.0854460     0.017552419
       84.999982       293.45565       98577.091       14089.091       3.6167500       3.2925000     -0.93425010       344.22100       2.0641439     0.016462249
       90.999989       293.45263       98578.587       14075.487       2.0790000       3.9047500     -0.96950010       343.90700       2.1061110     0.021993771
       96.000002       293.43052       98554.151       13998.779       2.7645000       3.1287500     -0.18650000       344.22800       2.1038777     0.020566042
       101.00002       293.38678       98551.988       13912.372       1.6232500       1.9717500     -0.93325010       344.29400       2.0759783     0.018187116
       105.99999       293.32337       98560.721       13768.956       1.7112500       2.8352500    -0.091750000       344.23000       1.9618467     0.014994236
       111.00000       293.28367       98559.695       13674.268       2.1767500       2.1600000      0.73825000       345.05200       2.0389066     0.016019577
       116.00001       293.23596       98566.851       13592.096       1.5602500       1.3322500      0.40300000       344.87400       2.1802409     0.031299672
       120.99999       293.17624       98567.348       13492.748       3.2950000       1.6235000      0.73275010       344.29500       2.0160017     0.016599393
       126.00000       293.07192       98547.741       13343.403       3.0432500       3.7517500     -0.29275000       343.17100       2.0844589     0.027754137
       131.00001       293.08715       98547.042       13324.451       3.0930000       2.9080000     -0.26425000       343.04800       2.1486151     0.028240434
       135.99999       293.16247       98566.687       13365.319       1.5475000       1.7590000      0.37075000       343.84300       2.1138610     0.018115338
       141.00000       293.20975       98567.158       13397.164      0.74875000      0.98475000      0.75900010       345.28900       2.0580575     0.016535562
       146.00001       293.38031       98562.168       13552.048       2.0342500       1.0265000     -0.18775000       343.34800       2.1095885     0.029103308
       150.99999       293.44628       98560.473       13637.703       1.8757500       2.9805000      0.42475000       343.68900       2.0252285     0.014764864
       156.00000       293.38743       98543.518       13638.777       2.6040000       2.6997500      -1.0097500       343.35100       2.1404252     0.027743095
       161.00001       293.40126       98541.792       13697.838       2.0327500       2.4660000     0.011500000       343.94600       2.0924610     0.019078249
       165.99998       293.42333       98561.406       13796.226       3.0897500       2.7265000     -0.41375000       343.83100       2.0789361     0.017645211
       171.00000       293.45705       98562.882       13876.064       3.1225000       1.4037500      0.14100000       344.48400       2.1406608     0.018391905
       176.00001       293.57122       98554.123       14019.421       2.1197500       3.2585000      0.30925000       344.14400       2.0635128     0.015920619
       181.99998       293.55905       98556.081       14034.067       3.5642500       1.6042500     -0.25675000       343.97100       2.0391747     0.015703622
       186.99999       293.48262       98553.313       13966.876       2.5470000       2.3660000     -0.49100000       344.25800       2.0788311     0.019010169
       192.00000       293.42018       98555.179       13909.957       1.2205000       4.5652500      0.49100000       344.61300       2.0678786     0.014703727
       196.99998       293.24770       98573.375       13735.770       4.2127500       4.8212500      0.50350000       344.36600       2.1116154     0.021525475
       201.99999       293.20318       98572.560       13685.430       3.2600000       2.2890000     -0.34175000       343.30000       2.0711947     0.017091626
       207.00000       293.23172       98553.185       13708.856       5.3767500       3.6325000      0.11950000       343.70000       1.9821404     0.015238015
       212.00002       293.25386       98553.630       13703.882       2.7605000       2.5475000     -0.93225000       343.60000       2.1150768     0.020087180
       216.99999       293.35232       98558.055       13751.971       4.3107500       3.1840000    -0.049000000       343.81100       2.0921458     0.019292643
       222.00000       293.36983       98560.331       13735.368       3.4102500       2.5255000     -0.76625000       344.73700       2.1315346     0.029968093
       227.00002       293.34560       98578.968       13667.760       2.5692500       2.0567500      0.37350000       344.34400       2.0417684     0.015224038
       231.99999       293.35567       98577.655       13640.825       3.5807500       1.8002500      0.74500010       344.33200       2.1111308     0.018345916
       237.00000       293.36629       98553.241       13594.751       1.1390000       2.7260000      0.45650000       344.21300       2.1205018     0.019133730
       242.00002       293.34032       98552.303       13586.729       2.7847500       1.3737500      0.48000000       344.57000       2.1141314     0.021650356
       246.99999       293.34914       98561.676       13641.245       2.3367500       2.3840000      0.41800000       344.38200       2.0313202     0.015696919
       252.00000       293.27489       98559.044       13631.857       2.1500000       1.9755000     -0.88950000       344.71700       2.0708223     0.020589892
       257.00001       293.06591       98562.471       13591.737       2.2665000      0.67550000       1.0422500       345.40900       2.0103687     0.015219492
       261.99999       292.99486       98561.519       13581.096       2.4770000       2.9800000      0.36175000       344.78800       1.9832494     0.015704771
       267.00000       292.93459       98541.759       13556.569       2.7565000       4.2195000     -0.75175010       344.06300       2.0852121     0.020774546
       273.00001       292.93496       98544.632       13538.212       3.3527500       3.2535000      0.11125000       344.47400       2.0705690     0.016660451
       277.99998       293.03265       98568.089       13539.181       2.9160000       2.6417500     -0.13400000       343.11100       2.0761937     0.018796030
       282.99999       293.10149       98567.701       13565.999       2.6687500       2.6940000     -0.44350000       343.05800       2.0414269     0.016309351
       288.00001       293.17781       98562.135       13588.910       3.0667500       1.8450000      0.59875010       343.99400       2.1372249     0.020213646
       292.99998       293.26587       98559.468       13634.483       2.9220000       2.2472500     -0.15900000       343.76100       2.0730190     0.015905295
       297.99999       293.39741       98543.638       13723.778       2.9637500      0.19675000      0.33150000       344.53600       2.1279695     0.017101262
       303.00001       293.45958       98541.096       13804.246       3.9780000      0.73525010   -0.0037500000       344.05800       2.1374700     0.020676451
       307.99998       293.51501       98551.380       13891.209       1.9372500       4.4207500     -0.58000000       343.36300       2.1693252     0.031406301
       312.99999       293.51813       98550.516       13954.677       3.5587500       3.2847500     -0.80575000       344.06300       2.1309306     0.021260588
       318.00001       293.48929       98542.264       14068.112       3.6900000       4.5905000     -0.64750000       344.09700       2.0455762     0.015005913
       322.99998       293.39405       98547.861       14038.578       2.3897500       3.4417500     -0.88375000       343.95500       2.1288056     0.021321764
       327.99999       293.21886       98561.306       13913.636       4.5770000       2.5132500    -0.021500000       344.03900       2.0560176     0.016624471
       333.00000       293.10882       98562.605       13822.848       3.1317500       4.6410000      0.13725000       343.43000       2.0755501     0.018482009
       338.00002       292.94217       98567.873       13655.814       4.5485000       2.7837500    -0.053250000       344.09800       2.1190753     0.021112292
       342.99999       292.87764       98566.464       13562.427       3.1802500       3.4920000     -0.29975000       343.79900       2.0443827     0.015791849
       348.00000       292.89712       98546.769       13502.498       3.5895000       4.4015000     -0.26750000       343.33500       2.0511268     0.017378866
       353.00002       292.88620       98549.224       13451.330       2.7495000       1.8605000     -0.36500000       343.82600       2.1513982     0.023970260
       358.99998       292.89431       98567.822       13394.909       3.2520000       3.3375000     -0.30775000       343.43900       2.0690460     0.020873269
       364.00000       292.88615       98557.616       13403.562       4.1500000       4.3847500      -1.0612500       343.59200       2.1429547     0.022417800
       369.00001       292.93230       98559.389       13448.917       1.4047500       3.9420000      0.35350000       344.11400       2.1586451     0.021880563
       373.99998       293.06145       98559.697       13578.479       2.8175000       2.5120000      0.14900000       344.28900       2.1550131     0.023906306
       379.00000       293.15069       98558.348       13674.340       4.1485000       3.7317500     -0.52550000       343.42700       2.1487025     0.030020501
       384.00001       293.26980       98578.702       13775.101       3.1610000       1.6932500     0.036500000       343.90400       1.9693152     0.014316030
       388.99998       293.36166       98580.803       13882.204       1.9707500       3.8785000      0.21325000       343.82700       2.1450801     0.021221102
       394.00000       293.42893       98571.821       13985.362       1.1910000       3.2427500     0.074500000       344.09500       2.1068004     0.016873187
       399.00001       293.44843       98541.223       14059.514       1.7072500       1.5652500      0.58725010       344.02700       2.0835893     0.015610021
       403.99998       293.49861       98543.181       14180.994       2.0532500       3.1670000      0.64600000       343.53300       2.1377507     0.023484541
       408.99999       293.55552       98547.859       14341.210       3.3470000       2.3397500     -0.63350000       343.34500       2.1118055     0.017131701
       414.00001       293.59954       98571.136       14499.582       2.3382500       2.5665000     -0.43725000       343.62600       2.0797858     0.015353705
       418.99998       293.61248       98580.378       14570.218       1.9302500       4.8830000     -0.13750000       343.69700       2.1772845     0.022195371
       423.99999       293.59988       98561.199       14600.224       3.4545000       3.9787500     -0.19925000       343.64800       2.0808649     0.015345570
       429.00001       293.56260       98557.727       14546.913       2.2857500       2.8285000      0.34100000       344.04000       2.1251350     0.020649823
       433.99998       293.50075       98559.170       14418.535       2.6242500       2.8680000     -0.17350000       343.64000       2.1360793     0.021068116
       438.99999       293.40894       98566.594       14187.187       3.9097500      0.95800010      0.35275000       344.13000       2.0872710     0.016491734
       444.00001       293.31680       98562.406       14005.794       2.4015000       2.8515000      0.76200000       344.06400       2.1020168     0.016531036
       450.00001       293.17749       98560.570       13729.463       3.1622500       3.3080000      0.52525000       343.77700       2.0780012     0.015557236
       454.99999       293.08420       98553.054       13597.948       3.2310000       3.2472500      0.28900000       343.77500       2.0959654     0.016464156
       460.00000       293.02610       98552.618       13480.376       3.0460000       2.0400000     0.057500000       343.97900       2.1128453     0.017993673
       465.00001       293.02344       98579.343       13391.027       2.2862500       1.4062500     -0.42150000       344.43000       2.1317829     0.020848318
       469.99999       292.99358       98580.057       13314.828       2.7892500     -0.32275000     -0.24175000       343.81800       2.0945549     0.019301673
       475.00000       292.96614       98550.294       13244.423       3.1782500      -1.0522500      0.86175010       344.04400       2.1896260     0.024851016
       480.00001       292.94623       98546.856       13209.384       4.1660000      -1.1007500      0.83825000       344.24500       2.1117675     0.018792779
       484.99998       292.93927       98550.565       13231.494       5.2037500     -0.17650000     -0.27300000       343.99700       1.9852126     0.015218849
       490.00000       292.89792       98548.008       13220.035       4.5767500      -1.4517500     -0.37150000       343.35400       2.1227494     0.019018392
       495.00001       292.86020       98564.038       13222.723       4.1195000     -0.39575000     -0.27475000       344.22200       2.1058430     0.020085754
       499.99998       292.79733       98569.409       13211.160       2.4717500      0.85475000     -0.49200000       344.58000       2.0732214     0.018286553
       505.00000       292.66462       98548.896       13147.710       3.4072500     -0.44475000      0.76425000       344.16100       2.0641361     0.016021718
       510.00001       292.57517       98546.474       13126.869       3.3732500      0.93325010     -0.13875000       343.23400       2.0606152     0.017124938
       514.99998       292.47072       98566.160       13108.646       4.2157500       1.8057500    -0.019750000       343.56700       2.1066474     0.017235827
       520.00000       292.42490       98567.621       13132.971       3.3855000      0.24125000     0.068000000       343.72400       2.1283136     0.021282290
       525.00001       292.45724       98559.691       13236.865       3.2765000       2.0237500    -0.087000000       344.00000       2.0749449     0.017794382
       529.99998       292.44707       98560.707       13282.889       4.9312500       1.6432500      -1.1842500       343.56600       2.0965515     0.018137287
       534.99999       292.44233       98554.650       13320.751       5.0455000      0.85475000      0.16425000       343.53200       2.1451502     0.021392432
       541.00000       292.45483       98553.531       13374.387       4.1012500       1.7312500     -0.62700000       343.50900       2.0560742     0.015906244
       546.00002       292.45651       98572.813       13383.192       3.9475000       2.3652500      0.15225000       343.53700       2.0253960     0.015287370
       550.99999       292.44666       98573.676       13404.535       3.6467500       1.0960000     -0.17525000       343.77800       2.0907879     0.016157693
       556.00000       292.47014       98553.752       13467.661       4.1270000       1.2410000     -0.18075000       343.57600       2.0798508     0.015606934
       561.00001       292.45269       98553.352       13485.319       3.3232500       1.5275000      -1.3152500       343.94100       2.0140816     0.016649270
       565.99999       292.38026       98562.276       13477.856       1.9100000     -0.41200000      0.74600010       344.10300       2.0242919     0.016842900
       571.00000       292.33077       98559.957       13450.912       3.8945000       1.6680000     -0.10150000       343.76900       2.0252477     0.015657873
       576.00001       292.28181       98562.150       13396.840       4.3777500       2.4095000      0.19475000       343.38700       2.0919997     0.016521772
       580.99999       292.23177       98562.030       13341.767       4.5062500       1.1657500      0.19900000       343.42300       2.0912583     0.016743342
       586.00000       292.18067       98543.809       13261.983       3.9445000       1.5917500   -0.0030000000       343.64700       2.1079608     0.017732607
       591.00001       292.13052       98542.016       13190.303       2.5742500      0.77750000     0.023250000       343.90100       2.0160566     0.014699515
       595.99999       292.06644       98556.157       13102.818       3.1687500      0.93225000     -0.40525000       344.01800       2.0689126     0.015589192
       601.00000       292.02993       98563.145       13047.355       2.1855000       1.8447500     -0.71350000       343.80000       1.9883992     0.017821348
       606.00001       291.99240       98573.177       12978.336       4.5132500       2.2245000     -0.39650000       343.44400       2.0724621     0.016674102
       610.99999       291.99024       98578.416       12969.705       3.3562500       2.1325000    -0.017500000       343.65400       2.0533678     0.016190137
       616.00000       292.03714       98583.690       13025.548       3.9980000       1.6570000      0.10825000       343.55200       2.0914876     0.016061353
       621.00001       292.05699       98581.052       13058.653       4.8082500       2.7760000     -0.68925010       343.20800       1.9936613     0.016150231
       625.99998       292.06896       98568.895       13103.750       3.5445000      0.62375000       1.2362500       343.48800       1.9845455     0.015565160
       631.99999       292.12332       98561.712       13189.911       5.8555000       2.1547500     -0.94025000       342.78700       1.9814237     0.016398578
       637.00000       292.18539       98546.959       13273.752       4.2855000       2.0040000     -0.14525000       343.26800       1.9885438     0.015012738
       641.99998       292.22544       98547.638       13350.746       2.7920000      0.76225010      0.80525000       343.94000       2.0267661     0.013496928
       646.99999       292.32162       98567.376       13494.922       2.6852500       1.0800000      0.38675000       343.61900       2.0259611     0.015105786
       652.00000       292.31642       98566.808       13533.578       4.0287500       2.1240000      0.11150000       343.11200       2.0188261     0.014412611
       657.00002       292.22814       98558.978       13514.786       3.8112500       2.4315000     -0.30425000       343.19400       2.0895714     0.015917434
       661.99999       292.17271       98561.660       13480.980       2.7587500      0.59200000      0.26525000       343.39600       2.0557587     0.014581286
       667.00000       292.07211       98560.536       13375.786       2.1002500      0.83525000    -0.042500000       343.82600       2.0130452     0.014726779
       672.00002       292.00814       98558.170       13310.833       4.2770000      0.97125010      0.59550010       343.57200       2.0261501     0.015143937
       676.99999       291.96995       98567.117       13252.627       2.4525000      0.73300000    -0.026000000       343.42100       2.0051967     0.014525017
       682.00000       291.91948       98566.644       13174.329       1.7785000      0.59225000      0.37525000       343.83000       2.0584234     0.015531648
       687.00002       291.84679       98546.984       13071.280       1.6085000       1.0755000      0.53050010       344.07600       2.0387491     0.015242006
       691.99999       291.82900       98547.602       13019.122       1.9200000       2.3272500      0.62700000       343.89300       1.9935681     0.015001957
       697.00000       291.84295       98567.361       12965.046       3.8490000       2.7025000     -0.53300010       343.40900       2.0377657     0.014733849
       702.00001       291.84918       98566.832       12942.925       4.2700000       3.1840000     -0.65050010       343.40800       2.0068107     0.014792082
       706.99999       291.88770       98558.879       12976.282       2.3707500       1.5600000      0.30725000       343.78600       1.9595586     0.012957812
       712.00000       291.91762       98561.480       12994.431       2.7662500       1.4197500      0.18425000       343.57400       2.0143534     0.014530624
       717.00001       291.95260       98560.879       13024.251       1.9110000      0.83375010      0.22600000       344.03500       2.0287855     0.015183788
       722.99998       291.95509       98558.130       13036.277       2.1242500       2.1740000     -0.16775000       343.75100       2.0139927     0.014936916
       727.99999       291.93886       98567.654       13032.065       1.0627500       2.1920000      0.18825000       343.73600       1.9982127     0.016826181
       733.00001       291.96766       98566.239       13077.776       3.6417500       2.0722500     -0.45050000       343.30700       1.9791781     0.015884212
       737.99998       291.98864       98546.745       13126.932       3.2762500       3.5947500     0.067500000       343.66800       2.0386140     0.014380021
       742.99999       292.01691       98549.035       13194.113       3.3197500       2.5262500     -0.89000000       343.21200       2.0256090     0.015206600
       748.00001       292.09641       98569.515       13323.926       3.9625000       2.6235000     -0.17600000       342.81600       1.9881953     0.013993927
       752.99998       292.13737       98564.393       13398.417       3.3542500       3.3917500     -0.54350000       343.15000       2.0390961     0.015368878
       757.99999       292.14539       98548.362       13461.315       2.3082500       1.9662500     -0.21025000       343.47500       2.0819248     0.015287754
       763.00001       292.16556       98550.886       13489.429       1.3982500       1.1430000     0.069000010       343.50000       1.9591790     0.014307725
       767.99998       292.20167       98548.781       13499.000       3.7650000       2.3737500    -0.017250000       343.31400       1.9684398     0.014935465
       772.99999       292.21266       98548.284       13488.854       3.4257500       1.8317500      -1.6425000       343.35000       2.0215763     0.015565128
       778.00000       292.20027       98568.330       13436.115       3.5702500      0.78775010     -0.21925000       343.79900       1.9701479     0.014957261
       782.99998       292.20039       98569.252       13404.242       4.5550000       2.0470000      0.66050000       343.33800       2.0253054     0.014212085
       787.99999       292.20040       98547.662       13370.039       1.4292500      0.99800000      0.63100000       343.74100       2.1048941     0.014456432
       793.00000       292.20052       98547.989       13335.897       2.0607500      0.88500010    -0.055000000       343.49800       2.0461537     0.016134377
       798.00002       292.20976       98562.217       13309.962       2.8440000       2.2137500     -0.16750000       343.53700       2.0295869     0.014845898
       802.99999       292.19080       98560.549       13255.254       2.4245000       1.8345000    -0.083250000       343.56400       2.0257923     0.014137111
       808.00000       292.13638       98553.508       13155.557       1.7905000       2.9475000      0.26700000       343.91200       2.1228570     0.017207734
       814.00001       292.19154       98561.544       13190.053       4.4540000       3.3947500     -0.53950000       343.22500       2.0305037     0.014440995
       818.99998       292.20222       98560.648       13195.291       3.1960000       1.7527500      0.79350010       343.53200       1.9680103     0.015435143
       824.00000       292.22586       98565.348       13245.841       2.7045000       3.4130000     -0.22525000       342.96200       1.9026287     0.017618419
       829.00001       292.25689       98567.774       13294.631       3.2030000       3.9360000     -0.29575000       343.24300       1.9793923     0.012448954
       833.99998       292.24514       98551.870       13296.844       1.7942500       2.1697500      0.10775000       343.39600       2.0313129     0.014105700
       839.00000       292.24387       98547.250       13316.375       2.6252500       2.7910000     -0.24225000       343.42800       1.9629784     0.014468296
       844.00001       292.25483       98548.753       13351.052       3.1105000       3.2855000     -0.18675000       343.31100       2.0156050     0.013722787
       848.99998       292.29300       98562.189       13421.859       1.8895000      0.89025000      0.37000000       343.65400       2.0050543     0.013766256
       853.99999       292.34466       98559.798       13474.189       2.0677500       1.6797500     0.068500000       343.82300       1.9854212     0.018077421
       859.00001       292.41176       98554.049       13534.482       2.2972500       2.2910000     -0.44575000       343.64200       1.9724308     0.016250391
       863.99998       292.40902       98561.550       13503.771       2.0570000       2.0545000     -0.42250000       343.21800       2.0013317     0.014284009
       868.99999       292.41156       98560.656       13499.981       2.8227500       1.8187500     -0.60275000       343.24000       1.9784513     0.015699011
       874.00001       292.34471       98565.309       13465.886       1.8485000       1.5127500    -0.053750000       343.76100       2.0005331     0.016111412
       878.99998       292.29402       98567.774       13429.640       1.5690000      0.93600000     -0.30325000       343.76500       2.0459464     0.015423961
       883.99999       292.25562       98565.323       13401.720       1.8892500       1.1002500     -0.42725000       343.69600       2.0433107     0.014948455
       889.00001       292.25078       98547.081       13413.538       3.4027500      0.67850010      0.29025000       343.99300       2.0235985     0.015289965
       893.99998       292.23061       98548.821       13380.569       1.0597500      0.46100000      0.76425000       344.13700       2.1367172     0.015092920
       898.99999       292.19974       98562.089       13314.668       2.2815000       2.1857500     -0.26100000       343.46000       1.9892025     0.017656213
       905.00000       292.17951       98552.295       13263.216       1.9205000      0.20450000      0.10975000       344.18700       2.0259058     0.013938690
       910.00001       292.14830       98554.471       13219.143       2.4625000       2.0977500     -0.49375000       343.60200       1.9470137     0.015391848
       914.99999       292.08964       98562.570       13167.434       3.6470000       1.6322500      0.41275000       343.16900       2.0315160     0.014646006
       920.00000       292.04026       98560.475       13122.437       2.0917500      0.91650000     -0.17100000       343.38700       2.0018206     0.015797694
       925.00001       291.96182       98558.527       13043.585       2.5732500       1.1057500      0.23975000       344.11000       2.0087154     0.013845076
       929.99998       291.93449       98561.392       13033.154       1.9690000       2.3557500      0.36200000       343.98100       2.0384289     0.016733340
       935.00000       291.95783       98556.926       13084.071       3.2520000       3.4037500     0.072750000       343.41300       1.9054672     0.015234064
       940.00001       291.94789       98553.119       13106.617       3.4632500       2.4180000    -0.059500000       343.65300       1.9100948     0.016406861
       944.99998       291.94231       98561.925       13157.922       3.2382500       1.9065000      0.21100000       343.55300       2.0151386     0.013790712
       950.00000       291.95275       98562.526       13209.261       3.2132500      0.53275000      0.33225000       343.78300       1.9202569     0.015873457
       955.00001       291.94489       98544.650       13245.248       2.4270000       2.0512500     0.047250000       343.97900       2.0204595     0.014175223
       959.99998       291.94623       98542.159       13273.322       2.0855000       1.3730000      0.11500000       343.95100       2.0066872     0.013665351
       965.00000       291.94745       98558.539       13299.579       3.7615000       3.2255000     -0.35375000       343.72900       1.9592407     0.016268144
       970.00001       291.99948       98557.020       13348.706       3.1580000       1.1445000     -0.42800000       343.75700       2.0230315     0.014231909
       974.99998       292.09973       98543.327       13401.243       3.7862500       1.5667500     -0.21750000       343.61800       2.0914645     0.014647811
       980.00000       292.15970       98544.575       13440.881       2.4570000       1.4960000      0.29850000       343.77600       2.0105510     0.012406847
       985.00001       292.28362       98545.288       13520.041       3.9857500       1.0402500      0.64325000       343.57600       2.0639607     0.014192191
       991.00002       292.33179       98543.868       13562.953       3.7757500       1.1387500     -0.55750000       343.59000       1.9802899     0.014469092
       995.99999       292.28731       98557.559       13565.223       3.9445000       2.6387500     -0.98125000       343.06800       2.0069457     0.013098401
       1001.0000       292.24009       98564.451       13541.532       3.2062500       2.6237500     -0.92750010       343.29700       2.0290472     0.013950201
       1006.0000       292.10275       98558.999       13453.290       2.4827500       2.0032500     -0.41100000       343.83800       2.0604361     0.013897355
       1011.0000       292.07468       98559.765       13433.990       2.8442500       3.1227500     -0.16775000       343.19700       1.9702920     0.015464691
       1016.0000       292.08563       98575.828       13425.330       3.0442500       1.9205000     -0.39800000       343.34000       2.0447408     0.014106924
       1021.0000       292.09273       98572.308       13413.524       2.8570000      0.84450010      0.18375000       343.60300       1.9860313     0.013866864
       1026.0000       292.17628       98544.961       13455.442       1.6150000       2.2065000      0.14250000       343.98600       1.9790774     0.012452419
       1031.0000       292.22249       98541.869       13464.392       3.0147500      0.64950000      0.46675000       343.94900       2.0214710     0.013801108
       1036.0000       292.23808       98546.025       13427.581       1.3752500     -0.33500000      0.43400000       343.44300       2.5241690     0.014092000
       1041.0000       292.25826       98543.754       13422.987       4.6590000       1.1892500      0.51475000       343.39600       2.6831042     0.015472759
       1046.0000       292.26923       98554.843       13427.204       3.7072500    -0.064000000      0.73850010       343.29300       2.8973757     0.014104716
       1051.0000       292.31270       98558.379       13450.584       4.4767500       1.5307500      0.11175000       343.44400       2.7375184     0.013095352
       1056.0000       292.35032       98545.732       13480.473       3.4925000       1.7685000      0.10225000       343.62500       3.0244675     0.016605153
       1061.0000       292.41722       98542.964       13535.616       3.6690000     -0.37725000      0.20200000       343.06800       3.4121410     0.015910333
       1066.0000       292.57864       98551.138       13636.263       3.0390000      0.48625000     -0.19400000       343.69900       3.1566989     0.015237047
       1071.0000       292.63716       98551.352       13710.173       2.9047500       1.0817500     -0.44750000       343.47400       2.9109127     0.013951807
       1076.0000       292.65156       98542.636       13811.925       3.3795000      0.52600000      0.41200000       343.55700       2.4521421     0.015062800
       1082.0000       292.66381       98545.678       13867.708       4.1727500     -0.11700000    -0.041750000       343.39700       2.9646443     0.014120418
       1087.0000       292.60039       98558.692       13877.275       2.8860000      0.12150000      0.13300000       343.82000       2.8724677     0.015569434
       1092.0000       292.58653       98555.259       13875.609       4.0870000      0.43550000     -0.51025000       343.50300       2.6429007     0.014343861
       1097.0000       292.58913       98543.363       13832.417       5.2237500      0.21850000     -0.13750000       343.36400       2.9069039     0.015221322
       1102.0000       292.60558       98545.594       13810.109       4.7702500     -0.87425010     -0.48575000       343.42700       2.3413936     0.014668608
       1107.0000       292.63098       98545.191       13776.271       4.7040000      0.71125000     -0.49000000       343.01900       2.2236258     0.015256726
       1112.0000       292.66702       98543.488       13759.440       4.7117500     -0.45400000      0.47675000       343.50100       2.2058136     0.014308715
       1117.0000       292.72912       98556.633       13741.704       3.4830000      0.37100000     0.035500000       343.60900       2.2046693     0.014473587
       1122.0000       292.77950       98559.181       13749.548       3.5997500      0.51075000      0.28000000       343.89500       2.2062021     0.014876319
       1127.0000       292.81832       98542.620       13751.811       3.3337500      0.68300000     -0.22450000       343.84700       3.6288854     0.015253762
       1132.0000       292.88485       98543.688       13815.591       2.5142500       1.5527500      0.69550000       344.54400       3.5420224     0.014304141
       1137.0000       292.99625       98562.126       13975.650       4.0890000       2.1110000     -0.19950000       343.56500       3.2799982     0.016679519
       1142.0000       293.03444       98562.720       14021.784       3.2295000       1.2585000      0.12525000       343.43700       2.4618082     0.014197569
       1147.0000       293.05651       98554.290       14057.034       3.3685000      0.99550000     -0.21075000       343.22700       2.3144800     0.013710173
       1152.0000       293.06398       98555.915       14069.429       3.0262500      0.61375000     -0.18075000       343.20400       2.2408587     0.015094249
       1157.0000       293.00103       98558.823       13987.847       2.7862500       1.3802500      0.11375000       343.30000       2.1773233     0.012026302
       1162.0000       292.98753       98552.621       13959.968       2.0847500       2.0132500      0.60450010       345.04400       2.0725065     0.014359552
       1167.0000       292.98896       98543.436       13961.923       3.0852500       2.3507500    -0.029750000       343.77900       2.0328474     0.013495971
       1173.0000       293.01022       98546.561       13950.953       3.2517500       2.3295000    0.0022500000       342.85800       2.0028286     0.013143161
       1178.0000       293.05574       98544.795       13938.299       3.1245000       2.3810000     -0.51075000       342.93400       2.0090989     0.014158635
       1183.0000       293.05702       98543.571       13907.734       2.2862500       1.6537500     -0.16575000       343.38300       2.0020514     0.013726125
       1188.0000       293.03957       98555.463       13866.125       1.9862500       1.2260000      0.10950000       343.72400       1.9805710     0.013002579
       1193.0000       293.06825       98560.711       13854.572       3.0407500       1.0237500     0.045000000       343.51400       1.9957762     0.014071771
       1198.0000       293.08894       98553.283       13826.644       2.3785000       1.5295000    -0.030000000       343.57500       1.9786827     0.013235057
       1203.0000       293.11738       98555.874       13835.184       1.6297500       1.4635000     -0.11075000       344.21300       2.0924577     0.012726269
       1208.0000       293.23478       98573.129       13916.059       2.6610000       2.5140000     -0.81100000       344.00100       2.0438110     0.013402366
       1213.0000       293.20049       98572.701       13899.082       1.5867500      0.81075010    -0.050750000       343.83300       2.0156143     0.013177844
       1218.0000       293.06252       98559.267       13839.305       3.4372500       1.7307500     -0.53700000       344.03400       1.9839967     0.012701740
       1223.0000       293.00251       98559.024       13807.311       3.1587500       1.1415000      0.57925000       343.99100       2.0162219     0.013601825
       1228.0000       292.87281       98563.460       13716.742       2.7937500      0.97700010      0.20025000       344.65600       2.1049057     0.013754409
       1233.0000       292.87604       98555.911       13724.335       1.8950000     -0.31325000     -0.31800000       344.87400       2.2149704     0.013390877
       1238.0000       292.98305       98543.246       13797.269       2.6460000      0.44675000     -0.13025000       344.78900       2.3142591     0.014508747
       1243.0000       293.04126       98544.799       13847.328       1.6647500      0.85450010      0.61450000       345.24200       2.8196379     0.014883142
       1248.0000       293.15107       98544.163       13938.322       3.5450000     -0.70400010      0.37250000       344.81400       2.5290383     0.014227460
       1253.0000       293.19308       98543.015       13986.860       3.2125000    -0.043500000     0.012250000       343.94800       2.4344297     0.017141245
       1258.0000       293.20256       98555.309       14021.673       2.4302500      0.31650000     -0.30375000       343.79500       2.2302814     0.016297777
       1264.0000       293.18512       98556.815       14026.972       3.4320000      0.97650000     -0.13675000       344.32100       2.1420382     0.014154723
       1269.0000       293.19378       98554.675       14054.603       3.9942500      0.73725000     0.097750010       344.22000       2.2733745     0.014548032
       1274.0000       293.23028       98561.423       14105.281       2.2092500      0.66900000      0.48600000       344.79700       3.3933617     0.013650483
       1279.0000       293.25005       98562.854       14139.633       2.8112500       1.7210000      0.53025000       343.97700       2.7070409     0.021861820
       1284.0000       293.29980       98545.779       14225.612       2.7625000       1.0650000     -0.90600000       344.09800       2.2947400     0.016310188
       1289.0000       293.31226       98542.153       14244.063       3.9107500       1.9657500     -0.67425000       343.98600       2.1178777     0.015879752
       1294.0000       293.30013       98544.694       14221.463       3.3602500       1.1792500     -0.66250000       344.07900       2.0846945     0.017134017
       1299.0000       293.25728       98557.630       14152.351       4.2350000       1.7385000     -0.26475000       343.48800       2.4542969     0.014910113
       1304.0000       293.21547       98552.088       14087.788       2.3485000     -0.24700000      0.35200000       344.40900       2.1353884     0.016989169
       1309.0000       293.14424       98544.386       13966.791       3.5665000      0.22875000    -0.084750000       343.56600       2.2998574     0.014198019
       1314.0000       293.14461       98550.437       13987.093       3.9617500       1.2240000      0.30175000       344.07300       2.4466160     0.015488729
       1319.0000       293.10591       98545.488       13944.887       3.4802500      0.81025000     -0.49600000       343.27500       2.7765047     0.016925884
       1324.0000       293.02449       98540.289       13848.182       3.1595000      0.25375000    -0.033500000       343.88200       2.6684080     0.021670259
       1329.0000       292.99350       98545.243       13817.844       4.5897500       1.0227500     -0.17225000       344.04500       2.8992821     0.017192486
       1334.0000       292.97485       98550.211       13801.239       5.1837500     -0.56725000     -0.51775000       342.96700       3.5925358     0.015997072
       1339.0000       292.93682       98543.723       13747.018       4.0540000     0.038750000     -0.21275000       343.70100       3.5774092     0.014260375
       1344.0000       292.93995       98543.101       13771.806       3.8707500      0.56100000      0.61550000       344.00900       2.5810050     0.024662384
       1349.0000       292.99987       98558.328       13883.556       2.1517500      0.15000000      0.53325000       344.23200       2.1178444     0.015553888
       1355.0000       293.02058       98538.913       13958.912       3.0497500      0.37650000      0.16250000       344.23800       2.0187091     0.019417184
       1360.0000       293.05199       98536.611       14015.315       3.6242500     0.035000000     -0.16725000       343.74400       2.0523421     0.013570461
       1365.0000       293.12493       98554.841       14078.949       3.6682500     -0.13050000      0.15750000       344.09100       2.0428255     0.014116723
       1370.0000       293.16319       98557.392       14139.772       1.4892500     -0.62100010      0.40825000       344.60900       2.3980086     0.014764782
       1375.0000       293.20454       98552.936       14201.698       4.7342500      0.81150000     -0.37250000       344.34600       2.6358538     0.016958094
       1380.0000       293.21216       98555.938       14243.240       3.2950000     -0.48425000      0.80475000       343.39000       2.3459761     0.014474335
       1385.0000       293.16691       98560.641       14278.445       4.3405000      0.25300000      0.43250000       344.12600       2.5252611     0.016925632
       1390.0000       293.14689       98555.410       14306.360       3.9022500      0.68725000    -0.098250000       343.80400       2.3270554     0.017944475
       1395.0000       293.13808       98543.209       14327.335       4.7505000     0.092500000     -0.22475000       343.29100       2.6267740     0.014389974
       1400.0000       293.09637       98544.527       14318.461       4.1132500      0.77025000      0.19700000       343.91600       2.5849890     0.014867364
       1405.0000       293.04484       98549.455       14293.390       4.8005000     -0.12775000     -0.63200000       343.86600       2.4973866     0.013979754
       1410.0000       292.99340       98544.512       14259.644       4.2430000      0.80375000      0.25600000       343.35100       2.2372352     0.012652903
       1415.0000       292.89923       98544.215       14188.233       3.2437500     0.047500000     -0.22100000       343.41000       2.2244989     0.015387559
       1420.0000       292.83094       98546.962       14125.757       1.1360000     -0.90950010      0.34675000       344.63900       2.2204436     0.013985441
       1425.0000       292.79099       98535.103       14072.169       3.1037500      -1.4217500      0.24200000       343.33100       1.9677750     0.017810857
       1430.0000       292.74092       98531.793       14006.245       2.1177500     -0.84725000      0.14225000       343.52300       2.0553724     0.014138326
       1435.0000       292.66208       98547.414       13892.902       3.3487500      -1.2305000      0.13725000       343.45800       2.0210428     0.016897639
       1440.0000       292.63471       98553.140       13845.025       4.4655000     -0.38250000      0.32200000       343.37100       2.0723233     0.014213672
       1446.0000       292.65658       98547.771       13827.600       4.1590000      -1.9785000     -0.38350000       343.05600       1.9671604     0.016733403
       1451.0000       292.64665       98550.518       13819.850       3.7522500      -2.4497500     -0.19550000       343.40700       2.0040322     0.015124099
       1456.0000       292.64364       98561.686       13847.133       3.5217500      -1.0837500     -0.90675000       343.28400       1.9597099     0.015117815
       1461.0000       292.65331       98561.480       13887.390       1.8017500       1.0872500      0.43675000       344.27000       2.0651363     0.013762153
       1466.0000       292.65557       98554.176       13957.285       2.5015000     0.050000000     -0.35650000       343.28100       1.9407420     0.018867072
       1471.0000       292.64534       98555.565       13985.385       1.7557500     -0.85350010     -0.15200000       343.27700       2.4351184     0.015953182
       1476.0000       292.64440       98559.794       14007.658       2.0610000     -0.24050000     0.090250010       343.75500       2.3745532     0.014385987
       1481.0000       292.65429       98554.065       14047.125       2.3312500     -0.94350000     -0.39975000       343.83700       2.4686182     0.017043127
       1486.0000       292.65558       98543.273       14071.703       1.8122500    -0.014250000    -0.098000000       344.15400       2.2287642     0.017330597
       1491.0000       292.64513       98545.091       14083.541       1.9297500     -0.90975000    -0.035750000       343.46400       2.4228875     0.015123484
       1496.0000       292.65636       98548.475       14122.704       1.7832500     -0.74425010     -0.24975000       343.80500       2.4178435     0.016185424
       1501.0000       292.65274       98543.511       14139.886       2.7637500      0.26825000    -0.064750000       344.37400       2.2622889     0.014160304
       1506.0000       292.60452       98542.258       14109.397       4.5782500   -0.0080000000     -0.25050000       343.60300       2.3600930     0.017354384
       1511.0000       292.58826       98547.177       14099.474       4.4830000       1.4980000     -0.37825000       343.28500       2.3450455     0.015698020
       1516.0000       292.61325       98545.358       14125.800       3.0200000       1.7445000      0.12725000       343.34600       2.7858365     0.013864056
       1521.0000       292.59910       98543.159       14105.995       3.9692500      0.66600000     -0.42650000       343.80400       2.4579589     0.016720743
       1526.0000       292.57501       98554.833       14065.769       2.4272500      -1.6557500      0.34925000       344.34500       2.7473817     0.016594069
       1532.0000       292.53306       98558.475       13995.420       2.5907500    -0.013250000      0.35725000       344.11000       2.5445848     0.016544464
       1537.0000       292.45731       98544.692       13888.969       2.6817500      0.27400000     -0.30100000       344.32800       2.8010145     0.017503879
       1542.0000       292.42318       98542.524       13822.899       4.0752500      0.29850000      0.53075000       343.99800       3.0556497     0.015317919
       1547.0000       292.38914       98551.363       13738.226       5.3705000      0.45500000     -0.21025000       343.19600       2.5197944     0.016154186
       1552.0000       292.39171       98551.086       13714.026       3.8420000      0.43200000     -0.64450000       343.66600       2.3200924     0.018944402
       1557.0000       292.44227       98542.795       13742.624       4.1600000     -0.50025000     -0.89650010       343.39000       2.6838135     0.015171185
       1562.0000       292.46212       98545.611       13753.556       3.2792500       1.0527500    -0.070750010       344.00100       2.7163328     0.014553322
       1567.0000       292.51109       98552.686       13807.253       3.1030000       1.4300000      0.56500000       343.87700       2.5452266     0.014792432
       1572.0000       292.50837       98557.312       13816.627       4.6710000       2.8120000     -0.96825000       343.05200       3.3459216     0.015337870
       1577.0000       292.45815       98569.878       13789.558       3.9752500       2.2550000     -0.47275000       343.65100       2.7268547     0.015039443
       1582.0000       292.43812       98574.058       13795.584       3.0017500      0.92050000     -0.14000000       344.07300       2.1322486     0.016315675
       1587.0000       292.40089       98575.981       13803.523       3.6355000       1.1662500     0.052750000       344.07300       1.9755623     0.023516142
       1592.0000       292.38700       98567.950       13813.060       4.3942500       1.5437500     -0.48950000       344.08800       2.0079456     0.017178855
       1597.0000       292.41096       98543.566       13869.759       3.2777500       1.0907500      0.38625000       344.55800       2.0675314     0.018239513
       1602.0000       292.39478       98541.690       13846.636       4.8835000      0.34275000      0.54600000       343.49200       2.1277799     0.014003243
       1607.0000       292.35905       98547.041       13768.876       4.4730000       1.1235000     -0.53725000       343.20200       2.0906302     0.016271398
       1612.0000       292.33910       98542.072       13721.245       3.2000000       2.7735000     0.036500000       343.66600       2.3181990     0.014378703
       1617.0000       292.31190       98543.205       13644.380       4.2720000       1.5280000     -0.30625000       343.27200       2.3081985     0.013300488
       1623.0000       292.27573       98549.357       13569.110       2.6247500      0.95875010       1.0132500       343.82900       2.7574415     0.014189698
       1628.0000       292.24431       98544.795       13520.635       2.9740000      0.86875000     -0.40500000       343.61200       2.7869909     0.018953673
       1633.0000       292.24303       98543.571       13492.064       3.5957500      0.90675000      0.12725000       343.42000       3.0052322     0.015861003
       1638.0000       292.24309       98557.185       13453.146       4.5780000       1.4257500      0.24650000       343.46100       2.5926707     0.013914088
       1643.0000       292.25194       98558.653       13447.961       4.9532500       2.7337500      -1.0067500       343.46900       2.4492952     0.018108062
       1648.0000       292.28445       98544.924       13472.380       5.0640000       1.9802500     0.010000000       343.49000       2.4639804     0.014984323
       1653.0000       292.33268       98541.651       13526.156       1.5062500       1.7772500      0.76225010       343.86200       2.0544031     0.014316336
       1658.0000       292.39971       98546.158       13614.310       2.9135000       2.1490000      0.49875000       343.94900       2.1267528     0.014823803
       1663.0000       292.42122       98545.318       13667.305       2.0897500      0.98125000      0.49325000       344.18000       2.0223040     0.014966004
       1668.0000       292.45064       98539.309       13742.241       5.8950000       2.9065000     -0.43800000       343.26200       2.0541357     0.015536078
       1673.0000       292.47241       98540.113       13805.417       6.1772500       1.1392500     0.022500000       343.81200       2.1451344     0.014210415
       1678.0000       292.46122       98544.898       13852.210       3.9887500       3.1177500      -1.2395000       343.57700       2.0956151     0.016326847
       1683.0000       292.43252       98546.926       13860.503       5.1545000       2.2160000   -0.0072500000       343.21200       2.1730716     0.016882275
       1688.0000       292.43816       98548.773       13893.861       2.5112500       3.6267500      0.75225000       343.58400       2.0287827     0.015083962
       1693.0000       292.35414       98553.593       13834.638       5.4952500       1.0015000      0.43150000       343.42800       2.0307189     0.016372443
       1698.0000       292.15899       98562.335       13667.805       2.6797500       2.9072500      0.61925010       343.84900       2.1323655     0.013818526
       1703.0000       292.07654       98560.714       13582.044       4.0472500      0.85875000      0.72700010       343.65600       2.0722032     0.013818456
       1708.0000       291.98358       98554.241       13478.800       3.6410000       1.4687500       1.2497500       343.69600       2.0811559     0.015677860
       1714.0000       292.04515       98558.352       13448.343       3.1492500       2.6160000     -0.41250000       343.93800       2.1246889     0.015980868
       1719.0000       292.05665       98555.393       13407.374       4.3700000       1.8127500     -0.59350000       343.63000       2.0867853     0.013826038
       1724.0000       292.05503       98552.448       13352.170       3.5435000       3.4642500      0.15075000       343.27000       2.0887754     0.013600363
       1729.0000       292.05595       98555.435       13312.911       4.6882500       3.4602500      0.18400000       343.40400       2.1351193     0.013819233
       1734.0000       292.02977       98561.325       13264.432       2.9145000       3.8915000     -0.37250000       343.31700       2.1227395     0.014884176
       1739.0000       291.99990       98556.645       13231.795       1.8465000       1.2812500      0.19025000       343.41200       2.0919446     0.014489564
       1744.0000       291.97004       98549.494       13213.487       3.6537500       2.1582500     -0.23950000       343.32700       2.1142463     0.016048721
       1749.0000       291.95067       98544.115       13213.928       3.5462500       2.0425000     -0.98300000       343.42600       2.1026316     0.015056002
       1754.0000       291.93038       98547.287       13227.700       1.9195000      0.74825000      0.38475000       343.61700       2.1527183     0.014839798
       1759.0000       291.88900       98544.362       13249.074       3.4735000       2.4437500     0.074750010       343.39000       2.1885378     0.016805342
       1764.0000       291.94526       98549.272       13338.119       3.3322500       1.2237500      0.47675000       343.42800       2.0555226     0.015868626
       1769.0000       291.95695       98556.622       13386.065       3.9620000       1.4875000     -0.43175000       343.53400       2.1065169     0.014207600
       1774.0000       291.94031       98558.368       13400.351       4.1032500       3.5992500     0.084500010       343.24600       2.1360972     0.015233412
       1779.0000       291.95027       98555.428       13444.841       3.3142500       2.4547500     0.072750000       343.50800       2.1083680     0.013458426
       1784.0000       291.96022       98552.475       13492.172       4.8027500       2.6217500     -0.33225000       343.32500       2.1001333     0.012312547
       1789.0000       291.95632       98557.602       13532.396       4.0452500       3.5480000    -0.074750010       343.18600       2.1206687     0.013974241
       1794.0000       291.92486       98554.174       13534.880       2.4800000       2.7250000      0.30150000       343.52200       2.1719890     0.016537033
       1799.0000       291.90074       98536.661       13552.718       2.6377500       1.5277500      0.71475010       343.50000       2.1137287     0.015243935
       1805.0000       291.83940       98550.711       13471.698       3.7417500       1.6842500     0.059500000       343.52200       2.0490373     0.014644849
       1810.0000       291.83272       98556.767       13446.260       3.3587500       1.3217500     0.050750000       343.46400       2.1174814     0.014240597
       1815.0000       291.91081       98570.318       13456.824       2.2017500       1.4357500      0.13275000       343.46300       2.0649446     0.012957662
       1820.0000       291.96047       98573.599       13475.634       1.3322500       1.5562500      0.38100000       343.52600       2.0743184     0.015180045
       1825.0000       292.03830       98564.965       13546.900       1.6557500       1.0137500      0.18375000       343.67700       2.1578158     0.016708403
       1830.0000       292.06560       98559.927       13564.530       2.6460000       1.9402500     -0.44375000       343.31300       2.0095824     0.015869906
       1835.0000       292.04242       98544.661       13554.175       2.3225000      0.97450010      0.18450000       343.69200       2.0628987     0.014792269
       1840.0000       292.05236       98542.371       13560.156       2.4092500       1.0312500     0.093500000       343.34500       2.2051558     0.016726573
       1845.0000       292.05794       98554.371       13544.416       2.3355000       2.0450000     -0.14500000       343.31100       2.0524892     0.014267840
       1850.0000       292.04752       98556.268       13526.352       2.8597500       1.3612500     -0.57875000       343.37200       2.0082700     0.014925164
       1855.0000       292.05586       98557.666       13526.972       2.9735000       2.0890000      -1.2552500       343.10700       2.0974538     0.015890547
       1860.0000       292.05472       98561.576       13521.116       3.2102500       2.2267500     -0.39575000       343.42900       2.1474969     0.015810378
       1865.0000       292.02393       98563.476       13499.880       4.2750000       3.7125000     -0.37375000       343.20800       1.9709692     0.019951501
       1870.0000       291.99419       98560.464       13472.350       2.5065000       2.4670000     -0.27575000       343.16000       2.0785815     0.014577728
       1875.0000       291.95210       98553.979       13422.519       3.5687500       3.3652500     -0.40375000       343.41500       2.1411906     0.017063955
       1880.0000       291.94355       98555.139       13415.733       2.9342500       2.6505000     -0.32775000       343.24500       2.0683197     0.015470214
       1885.0000       291.95826       98560.572       13429.767       2.2615000       2.4732500    -0.053250000       343.51200       2.1014428     0.013261409
       1890.0000       291.94805       98555.263       13431.791       2.0872500       2.4785000      0.34425000       343.37400       2.0810880     0.016178999
       1896.0000       291.95661       98543.070       13480.101       4.0537500       3.4132500     -0.40275000       342.91600       2.0528279     0.014437349
       1901.0000       291.95293       98544.798       13493.248       4.0732500       2.3187500    -0.064000000       343.25900       2.0795111     0.013894997
       1906.0000       291.90468       98548.457       13468.494       3.9167500       4.0987500      -1.2205000       342.95600       2.0493223     0.014895253
       1911.0000       291.88863       98543.621       13456.495       4.3995000       2.4830000      0.55275010       343.32600       2.0668878     0.014400285
       1916.0000       291.91324       98542.260       13455.832       1.7572500       3.6237500      0.55525000       343.27900       1.9917210     0.016839084
       1921.0000       291.89978       98547.220       13434.726       3.5375000       3.6150000     -0.18400000       343.14400       2.1227012     0.015292171
       1926.0000       291.86341       98548.300       13389.982       2.5652500       3.5917500     -0.57225000       343.21100       2.0671970     0.013650801
       1931.0000       291.84347       98543.411       13363.374       1.6350000       1.7975000      0.81550000       343.37400       2.0537057     0.015677951
       1936.0000       291.80561       98540.797       13322.495       3.5297500       2.4227500     -0.40000000       343.30300       2.0297885     0.015089430
       1941.0000       291.78923       98547.290       13309.479       3.0275000       1.6455000      0.49075000       343.44100       2.0518364     0.015069021
       1946.0000       291.79993       98553.565       13317.480       3.6057500       3.5875000      0.95475010       343.39400       2.0560925     0.015539175
       1951.0000       291.79993       98549.242       13332.510       4.3670000       3.1630000     -0.53425000       343.02300       2.0851241     0.013735903
       1956.0000       291.81286       98546.742       13384.990       3.3407500       4.0075000      0.48950000       343.22000       2.0638893     0.014673860
       1961.0000       291.79910       98552.709       13396.107       3.0662500       2.7517500      0.16250000       343.44800       2.0781627     0.014662610
       1966.0000       291.76275       98553.692       13384.212       4.6782500      0.12875000      0.29075000       343.28400       2.0986209     0.014778354
       1971.0000       291.74270       98547.738       13392.602       4.2217500       1.6135000     -0.34575000       343.53600       2.0571634     0.013329718
       1976.0000       291.70520       98546.530       13386.835       3.2510000       2.0565000     0.054000000       343.43100       2.0607639     0.016030598
       1981.0000       291.68884       98552.634       13389.120       3.3307500       2.4782500     -0.67625000       342.97400       2.1108624     0.014534481
       1987.0000       291.68893       98552.793       13411.942       3.7682500       2.0815000    -0.016000000       343.17400       2.1642098     0.015452339
       1992.0000       291.70512       98546.801       13439.436       2.8475000      0.57925000     -0.20225000       343.39100       2.0448469     0.015646942
       1997.0000       291.75360       98549.127       13479.805       2.9750000       1.1390000     -0.11050000       343.27900       2.1622350     0.014943479
       2002.0000       291.75712       98553.477       13486.647       5.2070000       1.1482500      0.30450000       342.86200       2.0729084     0.014567861
       2007.0000       291.74626       98547.605       13481.417       3.5547500       1.0790000    -0.088500000       343.23100       2.3045833     0.017775788
       2012.0000       291.75638       98541.367       13501.185       3.4177500       1.5900000    -0.021000000       343.31300       2.1197484     0.014478222
       2017.0000       291.75375       98542.170       13517.371       3.7712500       1.9812500     -0.65125000       343.32800       2.2145922     0.014833252
       2022.0000       291.74384       98548.688       13509.625       3.5050000       2.1202500     0.023500000       343.21200       2.1247463     0.012943333
       2027.0000       291.73455       98550.353       13496.681       2.9630000       2.2235000     -0.89800010       343.20700       2.1781689     0.015399949
       2032.0000       291.76097       98548.875       13524.098       1.9017500       1.7362500      0.78150000       343.28600       2.1335962     0.014292383
       2037.0000       291.79718       98559.531       13550.518       3.1445000       2.3405000      0.41450000       343.44200       2.1544776     0.016473680
       2042.0000       291.80731       98564.746       13557.632       1.8932500       1.0647500    -0.068750000       343.42100       2.1378861     0.013649785
       2047.0000       291.84508       98558.940       13605.042       1.3945000      0.73600010      0.25750000       343.62300       2.2739307     0.015165271
       2052.0000       291.86843       98551.404       13627.935       2.0835000      0.35525000      0.30225000       343.43800       2.1520462     0.014067482
       2057.0000       291.85346       98543.673       13601.872       3.4565000      0.75225000     -0.11275000       343.24300       2.1428993     0.013913267
       2062.0000       291.84344       98545.908       13589.877       2.8415000       2.0625000     -0.54600000       343.18100       2.1736928     0.015277840
       2067.0000       291.86783       98545.052       13606.529       3.3262500       1.0127500     -0.35175000       343.12600       2.1283186     0.014571988
       2072.0000       291.84511       98543.199       13598.276       1.9945000       1.1137500      0.89000000       343.51700       2.1731169     0.013778194
       2078.0000       291.75862       98555.122       13549.968       2.8302500       1.3552500      0.18700000       343.50800       2.5365186     0.014460837
       2083.0000       291.70855       98560.369       13519.616       3.3400000       1.8282500     0.013500000       343.52400       2.2234219     0.014917310
       2088.0000       291.65117       98555.826       13499.171       1.6817500      0.41100000      0.46800000       343.63500       2.1103002     0.014114470
       2093.0000       291.62029       98552.816       13472.235       2.3852500       1.4175000     -0.33275000       343.34000       2.0154871     0.015750705
       2098.0000       291.58764       98554.735       13422.677       2.6140000       1.9075000     0.052500000       343.62400       2.0817484     0.013555683
       2103.0000       291.59462       98557.745       13411.268       3.5975000      0.62675010     -0.54400000       343.27400       2.0609448     0.015663725
       2108.0000       291.64594       98555.738       13425.085       3.2842500      0.68225000      0.38500000       343.44000       2.0890332     0.013674613
       2113.0000       291.66648       98552.737       13424.882       1.5455000      0.72425000      0.35275000       343.61900       2.1609903     0.015142231
       2118.0000       291.69377       98554.642       13429.430       2.6147500       2.7067500      0.25025000       343.07100       2.1128298     0.015459453
       2123.0000       291.72391       98557.677       13445.161       1.7552500       2.2307500   -0.0027500000       343.23500       2.0503670     0.015324759
       2128.0000       291.75578       98556.099       13466.523       3.4177500       1.9465000     -0.23075000       343.37300       2.1023205     0.013390069
       2133.0000       291.75734       98553.130       13474.029       3.4027500      0.84450010    -0.059500000       343.30000       2.1626824     0.014391501
       2138.0000       291.75699       98554.783       13489.053       2.1535000       1.5422500      0.29600000       343.39500       2.0828219     0.014087841
       2143.0000       291.74824       98557.759       13498.317       1.6662500       1.6435000      0.14175000       343.68500       2.0925577     0.015015244
       2148.0000       291.70651       98555.714       13497.436       2.7905000       1.7362500      0.16675000       343.36400       2.1177521     0.013098374
       2153.0000       291.67646       98552.713       13481.779       1.8860000       1.3702500      0.16575000       343.24500       2.0835818     0.014801483
       2158.0000       291.63642       98554.727       13449.485       2.4327500       1.6087500     0.051000000       343.37300       2.1097781     0.015359348
       2163.0000       291.65409       98557.842       13464.746      0.85400000    -0.097500000      0.53450000       343.65800       2.0065814     0.015396015
       2169.0000       291.70141       98555.507       13491.630       3.7385000       1.7175000     -0.12875000       343.22400       1.9739192     0.020111334
       2174.0000       291.74087       98552.323       13525.931       1.1317500       1.1680000      0.59675000       343.41600       2.0256785     0.015271349
       2179.0000       291.76312       98555.322       13536.246       2.2587500       2.4160000     0.057750000       343.39200       2.0870985     0.013300775
       2184.0000       291.73019       98561.299       13486.606       3.4842500      0.95200000      0.13600000       343.43700       2.0725368     0.012440253
       2189.0000       291.70045       98556.560       13446.354       2.7400000       1.6645000     -0.45675000       343.29200       2.1325761     0.012861498
       2194.0000       291.67070       98549.349       13406.541       3.0720000       1.0222500     -0.14525000       343.35200       2.0990724     0.013674014
       2199.0000       291.64399       98544.261       13366.948       3.9525000       1.4595000      0.13325000       343.12200       2.1427984     0.013341480
       2204.0000       291.64499       98547.443       13349.495       3.3047500       1.8300000      0.40850000       343.23200       2.2471438     0.013318524
       2209.0000       291.64413       98545.264       13330.659       1.7715000       1.6637500    -0.045500000       343.37800       2.1506015     0.012920147
       2214.0000       291.68512       98540.114       13356.628       1.9277500       1.4277500     -0.18175000       343.25400       2.1001133     0.014019486
       2219.0000       291.70685       98545.028       13371.185       2.7752500       1.1757500    -0.089750010       343.36000       2.1232835     0.015889391
       2224.0000       291.68515       98550.138       13370.756       3.8067500      0.77625010     -0.31600000       343.15800       2.1890538     0.017428706
       2229.0000       291.69395       98545.125       13388.012       3.1605000      0.33850000     -0.28925000       343.28800       2.0633607     0.013906260
       2234.0000       291.71504       98540.098       13413.008       2.8477500       1.7805000      0.54450010       343.45000       2.2011078     0.013424315
       2239.0000       291.75605       98545.453       13447.616       3.6390000     -0.14575000      0.75775000       343.24000       2.3594603     0.014980157
       2244.0000       291.75488       98550.373       13462.293       3.4155000      0.70575000      0.20250000       343.26200       2.6481988     0.013295382
       2249.0000       291.75067       98545.224       13474.390       3.6737500       1.2777500     -0.14750000       343.24700       2.4950473     0.015839254
       2255.0000       291.75800       98541.068       13541.502       2.3050000      0.67275010      0.11575000       343.49700       2.4388779     0.012960040
       2260.0000       291.74796       98546.013       13565.409       2.5725000       1.2765000     -0.42550000       343.15700       2.2247041     0.012912799
       2265.0000       291.74211       98549.128       13593.801       2.5762500      0.83600000     -0.15500000       343.35600       2.2496636     0.014705009
       2270.0000       291.75192       98544.130       13623.915       2.3180000      0.94050000      0.60400000       343.62200       2.2153355     0.013314177
       2275.0000       291.74386       98541.142       13620.499       2.1207500      0.66875000      0.34875000       343.52900       2.1850949     0.017144488
       2280.0000       291.74518       98546.060       13622.654       2.4420000       1.6345000      0.13250000       343.28600       2.1361094     0.014320790
       2285.0000       291.77580       98549.096       13638.595       2.4637500       1.6515000    -0.018250000       343.47100       2.1600699     0.012004331
       2290.0000       291.80596       98544.087       13660.941       3.9435000       2.3555000    -0.022250000       343.14800       2.1282019     0.014347469
       2295.0000       291.81989       98541.123       13665.223       2.1200000      0.93250010      0.87825010       343.53400       2.1486550     0.012977628
       2300.0000       291.85130       98546.235       13687.498       3.3290000       1.8220000     -0.38200000       343.19400       2.0651766     0.014338415
       2305.0000       291.93934       98546.824       13765.995       2.6757500       1.9155000     -0.20775000       343.32100       2.1392146     0.011942089
       2310.0000       291.96759       98544.166       13791.045       2.8475000      0.73675000      0.45400000       343.22300       2.1018735     0.012378373
       2315.0000       291.94244       98550.979       13771.297       2.4132500      0.99425010     -0.10625000       343.54400       2.1282092     0.014508212
       2320.0000       291.95251       98557.676       13776.599      0.90325000      0.12450000      0.51450000       343.59400       2.1533986     0.016573705
       2325.0000       291.95775       98557.569       13776.314       1.6382500       1.4380000     0.077750000       343.49400       2.2085151     0.020276256
       2330.0000       291.94781       98554.581       13760.953       2.1232500    -0.078750010     0.036000000       343.52700       2.1088112     0.014065113
       2335.0000       291.95579       98552.872       13745.091       1.5570000      0.89950010      0.34650000       343.78500       2.1060033     0.012801842
       2340.0000       291.95466       98555.970       13740.048       1.7280000      0.32800000      0.34175000       343.69800       2.3033516     0.014399208
       2346.0000       291.90446       98557.176       13713.354       4.1575000       1.3680000      0.31700000       343.40700       2.4412060     0.015148483
       2351.0000       291.88790       98554.189       13698.610       2.8997500      0.44125000     -0.66025000       343.17400       2.4246684     0.017465502
       2356.0000       291.88762       98556.121       13708.960       2.5612500      0.89575000    -0.057000000       343.47400       2.2724978     0.013828341
       2361.0000       291.90159       98556.340       13710.047       3.2362500       1.3685000      0.10475000       343.07400       2.2411664     0.011942841
       2366.0000       291.95080       98545.523       13710.369       3.6255000       1.4940000     -0.16025000       343.13700       2.1235611     0.014074990
       2371.0000       291.95709       98542.625       13692.353       2.9842500      0.84225000    -0.025750000       343.20100       2.1575748     0.016748258
       2376.0000       291.99800       98549.831       13686.107       2.3985000      0.86575000     0.091000010       343.45800       2.1767909     0.014644628
       2381.0000       291.95229       98551.479       13643.313       3.1407500      0.17325000      0.21125000       343.40200       2.1664068     0.012650091
       2386.0000       291.80449       98550.486       13551.817       3.7020000      0.67300000      0.33825000       343.27500       2.1233096     0.014451724
       2391.0000       291.71402       98550.586       13485.372       3.1502500      0.58375000      0.16025000       343.32500       2.1036093     0.014460217
       2396.0000       291.57582       98547.737       13400.583       3.3680000       1.0105000      0.13050000       343.02000       2.2128356     0.017937413
       2401.0000       291.50616       98550.525       13345.128       3.3102500      0.70775000     -0.45475000       343.24300       2.1953282     0.016748256
       2406.0000       291.49192       98558.104       13297.370       2.5345000       1.1655000     -0.29300000       343.06200       2.1777394     0.014756588
       2411.0000       291.48933       98562.133       13282.381       2.4160000       1.5757500     -0.18850000       343.16900       2.1311900     0.014670298
       2416.0000       291.53758       98573.402       13295.908       2.9682500       1.2570000     -0.33375000       342.94400       2.1538941     0.015450704
       2421.0000       291.55779       98572.465       13318.367       2.1380000      0.54325000      0.30875000       343.40900       2.0584585     0.012462553
       2426.0000       291.59457       98555.006       13387.195       2.4072500      0.94450000      0.22375000       343.35700       2.1557406     0.017690439
       2431.0000       291.61086       98553.174       13422.159       1.5402500      0.79400000    -0.019750000       343.66800       2.0510097     0.014800352
       2437.0000       291.60004       98558.893       13443.305       1.9147500      0.85700010     -0.18775000       343.35800       2.1222550     0.013518014
       2442.0000       291.60004       98552.732       13482.336       2.3020000       1.3680000      0.31500000       343.42500       2.0995596     0.013606422
       2447.0000       291.58858       98543.363       13509.473       2.0850000       1.0997500      0.11725000       343.43100       2.1519840     0.013131259
       2452.0000       291.60462       98545.594       13566.649       2.5192500      0.95525000      0.33250000       343.49700       2.1004483     0.012902611
       2457.0000       291.64186       98547.207       13687.806       4.3347500       1.9345000      0.15750000       343.62600       2.1079278     0.013872611
       2462.0000       291.66165       98542.214       13727.467       2.8135000       1.1752500     -0.52125000       343.43700       2.1129287     0.013830676
       2467.0000       291.68782       98543.793       13741.650       2.8082500       1.4707500     -0.22025000       342.92400       2.1413745     0.016523040
       2472.0000       291.71796       98548.865       13750.512       2.2600000       1.6862500    -0.025000000       343.15900       2.0700384     0.014916454
       2477.0000       291.74182       98547.389       13708.930       1.5190000      0.71200000      0.34325000       343.64400       2.1639260     0.014405344
       2482.0000       291.76195       98542.320       13690.302       2.5285000      0.74150000     -0.18225000       343.43500       2.1894753     0.016822810
       2487.0000       291.78790       98542.995       13671.319       1.7760000       1.1725000     -0.18850000       343.43700       2.1502461     0.015298992
       2492.0000       291.81789       98547.978       13677.351       1.5775000      0.64275000      0.70825000       343.63900       2.3163263     0.025362521
       2497.0000       291.83086       98547.167       13691.565       2.0355000       1.4140000    -0.084000010       343.14500       2.1199439     0.015192803
       2502.0000       291.86671       98542.174       13704.176       1.0075000       1.3255000      0.51725000       343.71900       2.1570556     0.015256120
       2507.0000       291.95247       98543.834       13763.046       2.7640000       1.6362500    -0.098250000       343.24900       2.1380509     0.014391290
       2512.0000       291.96967       98548.905       13762.163       2.0330000       1.6127500     -0.39175000       343.31600       2.2460981     0.022095354
       2517.0000       291.95713       98545.287       13707.356       2.8612500      0.99150000      0.16500000       343.21000       2.1326994     0.014632195
       2522.0000       291.95097       98543.564       13700.895       1.7165000      0.85475000     -0.21700000       343.23500       2.1099058     0.012851048
       2528.0000       291.90544       98556.888       13697.050      0.82650010      0.65125000      0.14375000       343.41700       2.1177401     0.014877780
       2533.0000       291.87542       98558.389       13688.525       1.5492500      0.15650000      0.40450000       343.64400       2.1520998     0.013741013
       2538.0000       291.84506       98544.013       13696.864       1.5085000       1.0917500    -0.099750000       343.48900       2.1205732     0.017684884
       2543.0000       291.84382       98542.658       13707.924       1.7442500       1.0495000    -0.041500000       343.07900       2.1352447     0.014325441
       2548.0000       291.85177       98550.669       13714.408       2.2885000      0.95650010     -0.22375000       343.18500       2.1071678     0.013087790
       2553.0000       291.84170       98551.797       13703.879       1.6117500      0.64925000     -0.11750000       343.31300       2.1682126     0.016497375
       2558.0000       291.84867       98550.557       13703.162       1.6577500      0.52900000     -0.25525000       343.45600       2.0877246     0.013043157
       2563.0000       291.85866       98550.663       13698.771       2.3780000       1.2087500     -0.63600000       343.29100       2.1237650     0.014927516
       2568.0000       291.84371       98551.181       13660.960       3.7810000      0.97975000     -0.20675000       343.08700       2.1084030     0.015227364
       2573.0000       291.85245       98549.314       13657.219       2.6337500      0.37500000      0.31150000       343.37500       2.1162335     0.014318014
       2578.0000       291.90306       98542.783       13676.161       2.2875000      0.76350000      0.56200000       343.60600       2.0461476     0.017157313
