MIRICO/SHELL project - Processed LDS file generated on
Tue Jul 18 13:24:17 2017
Time stamp for record start
05/11/2017  15:22: 6.0000
Nb of points in the record
         511
Beam position index
       2.0000000
Beam angle (degrees)
      -8.6230000
Open Path length (m)
       64.850000
****************** Temporal data record ************************
Elapsedtime_sec Temp_K Press_Pa Humidity_ppmv WindX_m/s WindY_m/s WindZ_m/s Speedofsound_m/s CH4vmr_ppmv CH4vmrerror_ppmv  
      0.00000000       292.70864       98561.325       13406.325       1.1940000       1.6117500     -0.14800000       344.49700       1.8924743     0.010881130
       5.0000131       292.75267       98557.668       13407.034       1.9750000      0.81400000     0.031000000       344.13200       1.9157864     0.010741336
       9.9999860       292.81282       98559.015       13435.110      0.94150010       1.5495000    -0.062250000       344.44800       1.9098515    0.0099949254
       14.999999       292.85478       98573.238       13486.746      0.33900000       1.3735000      0.20925000       344.87300       1.9057010     0.010758431
       20.000012       292.90580       98577.744       13524.061      0.97100010       3.3062500     -0.35650000       344.75100       1.9262675     0.010257418
       24.999985       293.01478       98580.361       13588.513       1.8167500       2.0995000      0.34875000       345.00100       1.9821405     0.017882836
       29.999998       293.07220       98577.002       13636.550       2.0830000       1.9355000     -0.69825010       343.04300       2.0025316     0.012181836
       35.000011       293.10495       98555.379       13672.847      0.87550000       2.2850000    -0.032750000       344.86700       1.8743355     0.010264189
       39.999984       293.11235       98552.010       13687.933       1.7427500       2.0350000     -0.20850000       343.68100       1.9185704     0.010620493
       44.999997       293.03762       98558.229       13659.460      0.61050000       2.0575000      0.14500000       343.81300       1.9108662     0.010654280
       51.000005       293.04343       98559.922       13689.115       1.3167500       2.7377500      0.33250000       343.98600       1.9484905     0.010699682
       55.999978       293.05630       98578.239       13717.170       2.1092500       2.5395000     -0.12775000       344.18500       1.8812593     0.010205524
       60.999991       293.10717       98578.718       13760.019       2.6242500       2.0960000      0.25375000       343.94300       1.8680323     0.010751285
       66.000004       293.25303       98554.153       13859.058       3.1192500      0.94700000      0.48625000       344.51100       1.9677502     0.010761146
       71.000017       293.33834       98552.054       13933.116       3.6500000       1.2472500     -0.34300000       344.09400       1.9474466     0.011214596
       75.999990       293.44108       98557.918       14019.064       1.5737500       2.2215000     -0.22750000       343.51100       1.8842449     0.010105056
       81.000003       293.47935       98559.690       14055.452       1.2902500      0.97675010      0.50500000       345.09300       1.8822236     0.011692444
       86.000016       293.45640       98578.217       14090.914       2.2777500       1.9397500     -0.14800000       344.47900       1.9198023     0.011204115
       90.999989       293.45263       98578.587       14075.487       2.3660000       3.5602500     -0.19425000       343.98300       1.8998387     0.010967640
       96.000002       293.43052       98554.151       13998.779       3.1815000       3.4645000     -0.72700010       344.12500       1.9477030     0.012856381
       101.00002       293.38678       98551.988       13912.372      0.93275000       2.7547500       1.1535000       344.68600       1.9203106     0.011512924
       105.99999       293.32337       98560.721       13768.956       1.0985000       3.9850000     -0.30025000       343.88600       1.9299342     0.010955062
       111.00000       293.28367       98559.695       13674.268      0.34100000       2.2640000      0.85500000       344.94200       1.9985878     0.014179043
       116.00001       293.23596       98566.851       13592.096       2.9860000       2.4132500     -0.37500000       344.40300       1.9053311     0.011302206
       120.99999       293.17624       98567.348       13492.748       2.9240000       2.1572500      0.28575000       344.05600       1.9077806     0.011512809
       126.00000       293.07192       98547.741       13343.403       2.3840000       3.3730000     -0.42475000       343.08200       1.9402213     0.010457220
       131.00001       293.08715       98547.042       13324.451       2.9820000       2.4680000     -0.59850000       343.50200       1.9739085     0.010134079
       135.99999       293.16247       98566.687       13365.319       1.6572500       1.6272500      0.37100000       343.88700       2.0106655     0.020462758
       141.99999       293.22221       98566.650       13407.987       1.9557500      0.80575000      0.57575010       344.98000       1.9685138     0.012088401
       147.00001       293.39757       98562.023       13571.336       2.0925000       1.4787500     0.074250010       344.50500       1.9559702     0.011857625
       151.99998       293.45338       98559.842       13651.576       2.7872500       3.2672500     -0.54450010       343.45200       1.9767877     0.013517730
       156.99999       293.38921       98542.583       13649.093       3.1727500       2.1770000     -0.97325000       343.36300       1.9949030     0.011309508
       162.00001       293.40550       98542.332       13711.901       2.6797500       2.4167500     -0.20450000       343.94200       1.9944258     0.015240046
       166.99998       293.42904       98562.102       13812.185       2.8477500       2.7582500     -0.45250000       343.91600       1.9382136     0.012271570
       171.99999       293.46535       98562.576       13892.048       3.5365000      0.99925010     -0.29750000       344.42400       1.8966505     0.012439175
       177.00001       293.57419       98554.322       14027.844       3.7145000       1.2992500     0.095500010       344.60900       1.8997822    0.0099892007
       181.99998       293.55905       98556.081       14034.067       4.8222500       2.4010000     0.053500000       343.53200       1.8800076     0.013290734
       186.99999       293.48262       98553.313       13966.876       1.7057500       1.9730000      0.12025000       344.71400       1.9305239     0.010352350
       192.00000       293.42018       98555.179       13909.957       1.7340000       5.0502500    0.0015000000       343.59300       1.9423522     0.010732563
       196.99998       293.24770       98573.375       13735.770       4.4215000       3.9050000     -0.33500000       343.66300       1.9106221     0.010520497
       201.99999       293.20318       98572.560       13685.430       3.0850000       1.7972500     -0.50150000       343.23200       1.8740055     0.010999943
       207.00000       293.23172       98553.185       13708.856       4.8965000       2.5497500     -0.68450000       343.42400       1.9376909     0.011131602
       212.00002       293.25386       98553.630       13703.882       2.7797500       2.5605000      0.20625000       343.88400       1.9160927     0.011449509
       216.99999       293.35232       98558.055       13751.971       3.8645000       2.8605000    -0.069250000       344.02500       1.9124886     0.012723990
       222.00000       293.36983       98560.331       13735.368       2.1895000       2.3265000     -0.29800000       344.58700       2.0366753     0.015180587
       227.00002       293.34560       98578.968       13667.760       3.2330000       3.6750000     -0.56625000       344.01400       1.9022725     0.013042009
       232.99998       293.35768       98576.340       13635.952       2.8535000       2.9750000     -0.38950000       344.45000       1.8675886     0.015688448
       238.00000       293.36212       98552.543       13591.337       2.0842500       1.6677500       1.0227500       345.30000       1.9608452     0.012013039
       243.00001       293.33359       98552.880       13587.832      0.40875000       1.2195000      0.61200000       345.16000       1.9487499     0.012600400
       247.99998       293.33823       98561.248       13640.798       2.1895000       2.5172500      0.45625000       344.42000       1.9145611     0.010877491
       253.00000       293.25414       98558.371       13627.820       2.3137500       2.5480000      0.47650000       345.06000       1.8942479     0.010304495
       258.00001       293.04875       98562.592       13589.471       2.3232500      0.70650010     -0.37875000       345.56600       1.9543795     0.017202281
       262.99998       292.98508       98560.862       13579.188       2.3225000       3.0662500     0.071750000       345.24400       1.9320853     0.011396410
       267.99999       292.92963       98541.357       13552.667       4.6195000       3.7477500     -0.45400000       344.11500       1.9032430     0.011662125
       273.00001       292.93496       98544.632       13538.212       3.2620000       3.7427500     -0.13150000       344.59000       1.9285913     0.011357648
       277.99998       293.03265       98568.089       13539.181       2.9795000       2.6910000     -0.22350000       343.95100       1.9193189     0.011045196
       282.99999       293.10149       98567.701       13565.999       2.9730000       2.1057500     0.086250010       344.06000       1.9191739     0.010084881
       288.00001       293.17781       98562.135       13588.910       1.1687500       1.7485000      0.18200000       343.97900       1.9689013     0.010813095
       292.99998       293.26587       98559.468       13634.483       2.9112500       1.9742500     -0.17225000       343.79100       1.9450829     0.011135751
       297.99999       293.39741       98543.638       13723.778       4.0715000      0.93675010    -0.050000000       343.86500       1.9961353     0.017272219
       303.00001       293.45958       98541.096       13804.246       3.6577500    -0.014500000      0.98150000       344.22900       1.9705414     0.012587916
       307.99998       293.51501       98551.380       13891.209       1.4422500       3.8505000   -0.0085000000       343.54800       2.0147412     0.014365240
       312.99999       293.51813       98550.516       13954.677       3.0072500       3.8872500     -0.43000000       344.16800       1.9702648     0.012906693
       318.00001       293.48929       98542.264       14068.112       2.9217500       5.0940000      -1.0312500       343.97700       1.9512700     0.017220352
       324.00001       293.30792       98558.386       13969.801       1.4375000       3.2710000      0.55475000       344.16500       1.9301695     0.011031115
       328.99999       293.19674       98561.775       13897.295       4.3847500       4.5505000     -0.51325010       343.61100       1.9467300     0.011391614
       334.00000       293.02922       98565.460       13747.013       3.6625000       2.1510000      0.11450000       343.95600       1.9094648     0.010011241
       339.00001       292.92533       98567.984       13635.320       4.5755000       2.8090000      0.29425000       344.05900       1.9982795     0.014528330
       343.99998       292.87065       98565.593       13546.452       3.8100000       2.7180000     -0.17900000       343.58900       1.9607071     0.011346303
       349.00000       292.89393       98546.653       13491.043       3.5055000       3.6117500      0.33400000       343.52700       1.9720963     0.012058368
       354.00001       292.88553       98550.625       13442.925       1.7657500       2.0940000      0.84175000       344.06900       1.9484066     0.010769215
       358.99998       292.89431       98567.822       13394.909       4.3385000       3.9070000     0.017500000       343.79900       1.9425666     0.011307532
       364.00000       292.88615       98557.616       13403.562       4.0315000       3.9325000     -0.70925000       343.64500       1.9069130     0.010495758
       369.00001       292.93230       98559.389       13448.917       1.8460000       3.7590000      0.40400000       343.95400       2.0233778     0.016575693
       373.99998       293.06145       98559.697       13578.479       3.8317500       2.9915000     -0.51975000       343.86100       1.9480935     0.011556751
       379.00000       293.15069       98558.348       13674.340       3.8637500       2.9990000     0.086500000       343.43300       1.8678485     0.012373059
       384.00001       293.26980       98578.702       13775.101       2.6430000       2.6587500     -0.17300000       344.05200       1.9844113     0.016367354
       388.99998       293.36166       98580.803       13882.204       2.4247500       2.8667500      0.33100000       344.07500       1.9817931     0.011324432
       394.00000       293.42893       98571.821       13985.362       1.8632500       3.3912500      0.37150000       343.71500       1.9541847     0.010556896
       399.00001       293.44843       98541.223       14059.514       1.4165000       2.1457500      0.55950000       344.05200       1.9261915     0.010091497
       403.99998       293.49861       98543.181       14180.994       2.8175000       3.1397500     0.095750000       343.42600       1.9617973     0.010614688
       408.99999       293.55552       98547.859       14341.210       3.2880000       2.5590000     -0.13625000       343.22400       1.9556521     0.010782749
       415.00000       293.60415       98573.791       14518.500       3.1102500       2.6397500      0.24775000       343.47500       2.0008673     0.011288103
       420.00002       293.61204       98581.017       14577.145       1.6942500       4.6040000     -0.39575000       343.64400       1.9634615     0.010978535
       424.99999       293.59439       98560.112       14595.606       3.3922500       3.2475000      0.11425000       343.81400       1.9953526     0.014778073
       430.00000       293.55220       98557.622       14527.212       2.7722500       2.7417500     -0.39950000       343.83500       1.9482895     0.014900862
       435.00001       293.47293       98568.186       14319.650       2.3547500       3.6977500      0.50900000       343.56800       1.9721072     0.012542475
       439.99999       293.39159       98565.952       14152.300       2.8742500       2.6962500    0.0042500000       343.66600       1.9524986     0.011021703
       445.00000       293.26655       98559.487       13905.693       1.8650000       4.1632500      0.33250000       343.45700       1.9641515     0.011315482
       450.00001       293.17749       98560.570       13729.463       3.2282500       2.3335000      0.88650010       343.77800       1.9931820     0.011914755
       454.99999       293.08420       98553.054       13597.948       3.3892500       2.9272500     -0.47200000       344.08200       2.0010766     0.015590385
       460.00000       293.02610       98552.618       13480.376       2.7495000       2.8297500     -0.25900000       343.63300       1.9247145     0.011626176
       465.00001       293.02344       98579.343       13391.027       3.5295000       2.4555000     0.052250000       344.03100       1.9656603     0.016492831
       469.99999       292.99358       98580.057       13314.828       3.0125000     -0.48200000     0.093750010       343.97400       1.9053812     0.010830151
       475.00000       292.96614       98550.294       13244.423       3.0557500     -0.35875000     -0.13200000       344.07700       1.9478443     0.011483702
       480.00001       292.94623       98546.856       13209.384       4.0425000      0.32700000     -0.45125000       344.26300       1.9361643     0.010963010
       484.99998       292.93927       98550.565       13231.494       5.0515000      0.68075000     -0.32025000       343.82200       1.9810493     0.017586251
       490.00000       292.89792       98548.008       13220.035       4.5932500     -0.47675000      0.50750010       343.94300       1.9172136     0.010335348
       495.00001       292.86020       98564.038       13222.723       3.9015000     -0.37650000    -0.094750000       344.26500       1.9837379     0.013150669
       500.99998       292.78175       98569.581       13207.174       3.2305000      0.49025000      0.46025000       344.31600       1.9214808     0.011365486
       505.99999       292.64566       98547.803       13142.073       5.6032510     -0.10375000      0.60675000       343.79500       1.9762610     0.015682927
       511.00000       292.55890       98546.902       13124.897       2.8252500       1.3722500     0.054250000       343.31500       1.8895337     0.011795077
       516.00002       292.45860       98566.845       13111.035       4.1700000       1.7397500     -0.49400000       343.28200       1.9423520     0.010943629
       520.99999       292.42017       98567.325       13141.559       2.2600000      0.81325010      0.46075000       344.06100       1.9579055     0.010756849
       526.00000       292.45519       98559.901       13246.963       3.2867500      0.96775010     -0.66400000       343.68800       1.9279364     0.010067683
       531.00002       292.44506       98560.900       13290.756       3.5795000     0.071750000     -0.74400000       343.04300       1.9244275    0.0096717177
       535.99999       292.44441       98553.962       13330.629       3.8930000       1.6350000      0.94925000       343.78400       1.8897437    0.0099505811
       541.00000       292.45483       98553.531       13374.387       4.1555000       1.3352500     -0.26300000       343.52200       1.9570220     0.015933705
       546.00002       292.45651       98572.813       13383.192       2.4330000      0.92275010       1.0675000       343.86900       1.9612881    0.0095889067
       550.99999       292.44666       98573.676       13404.535       3.4927500       1.5702500      0.43250000       343.85700       1.9460170     0.010725707
       556.00000       292.47014       98553.752       13467.661       3.2027500       1.8675000      0.40800000       343.63800       1.9613211     0.010339277
       561.00001       292.45269       98553.352       13485.319       3.3940000      0.68750010      0.21775000       343.76700       1.9494153     0.014021060
       565.99999       292.38026       98562.276       13477.856       2.1305000      0.57250010      0.37925000       344.09900       1.9774141     0.015183178
       571.00000       292.33077       98559.957       13450.912       3.9635000       2.2980000      0.72875010       343.89200       1.9634183     0.010793080
       576.00001       292.28181       98562.150       13396.840       5.4140000       1.1492500     -0.16925000       343.39300       1.9220181     0.010100812
       580.99999       292.23177       98562.030       13341.767       4.0800000       1.1810000     -0.15225000       343.38000       1.9642178     0.011391136
       586.00000       292.18067       98543.809       13261.983       3.5927500       1.9255000     -0.10100000       343.68300       1.9180655     0.010237267
       592.00001       292.12050       98542.559       13175.894       3.2337500       1.0752500    -0.059750000       343.68500       1.9229781     0.010085635
       596.99998       292.05809       98557.561       13090.593       3.2122500      0.82725010      0.55150000       343.99300       1.9217084     0.010626054
       601.99999       292.02420       98564.532       13037.955       4.2762500       1.1877500      0.31725000       343.62000       1.9008815     0.010223526
       607.00001       291.99000       98574.420       12973.627       4.5685000       4.0582500     -0.32675000       343.75400       1.9342816     0.014302122
       611.99998       291.99277       98579.170       12972.452       3.8972500       2.2095000      -1.3797500       343.61700       1.9724613     0.017527103
       616.99999       292.04109       98583.569       13031.387       4.1885000       2.0845000     -0.24425000       343.65900       1.9007439    0.0093691628
       622.00001       292.06098       98579.914       13066.448       4.7352500       2.2987500    -0.048500000       343.58300       1.9723923     0.013091583
       626.99998       292.07677       98567.697       13116.757       3.1265000       1.2347500      0.65650000       343.77400       1.9680693     0.010358027
       631.99999       292.12332       98561.712       13189.911       6.1720000       1.7645000      0.12650000       343.29600       1.8754150     0.011109897
       637.00000       292.18539       98546.959       13273.752       4.7870000       1.3827500      0.18400000       343.43800       1.9457391     0.010069354
       641.99998       292.22544       98547.638       13350.746       3.5497500      0.38750000      0.36575000       343.49800       1.9729941     0.010812713
       646.99999       292.32162       98567.376       13494.922       4.0345000       1.3017500     -0.52375000       343.43300       1.9715445     0.010555341
       652.00000       292.31642       98566.808       13533.578       3.2817500       1.4797500     -0.27575000       343.26700       1.9193833    0.0098679376
       657.00002       292.22814       98558.978       13514.786       3.3962500       2.2685000     -0.39625000       343.06000       1.9450834     0.010219038
       661.99999       292.17271       98561.660       13480.980       3.4432500      0.93025000      0.11450000       343.60800       1.9276497    0.0090915209
       667.00000       292.07211       98560.536       13375.786       1.9962500       1.3445000      0.53375000       343.71500       1.9633094     0.011314922
       672.00002       292.00814       98558.170       13310.833       3.6412500       1.5462500      0.44825000       343.65000       1.9512143    0.0099419015
       676.99999       291.96995       98567.117       13252.627       2.5147500      0.58425000      0.77075000       343.52200       1.9277333     0.010540060
       683.00000       291.90939       98565.948       13157.777       1.8155000      0.27875000      0.39875000       343.86900       1.9131758     0.010690269
       688.00001       291.84118       98546.500       13059.413       1.9670000       1.6015000    -0.025250000       343.84100       1.9683269     0.011247692
       692.99998       291.82851       98548.638       13010.833       2.2060000       2.3902500     -0.47575000       343.75900       1.9255414     0.010141164
       698.00000       291.84322       98567.649       12958.438       4.2342500       4.2022500     -0.46200000       343.32100       1.9059301     0.010016005
       703.00001       291.85189       98566.135       12941.775       4.3687500       3.3210000     -0.53325000       343.30300       1.9764147     0.014442670
       707.99998       291.89368       98559.305       12979.467       2.6967500       2.3567500      0.29875000       343.64900       2.3096478     0.015267261
       713.00000       291.92360       98562.142       12998.730       1.6990000      0.96975000      0.70050000       343.65300       2.6635173     0.012440582
       718.00001       291.95428       98560.296       13026.747       1.4132500       1.1752500      0.46900000       344.06100       2.4817002     0.011138997
       722.99998       291.95509       98558.130       13036.277       1.9190000       1.5920000     -0.56475000       343.90700       2.3516233     0.014753014
       727.99999       291.93886       98567.654       13032.065       1.5712500       1.6880000      0.82150010       343.84500       1.9086879     0.010645007
       733.00001       291.96766       98566.239       13077.776       4.1572500       2.8750000     -0.69500010       343.33700       2.0007188     0.014154269
       737.99998       291.98864       98546.745       13126.932       2.5282500       1.6230000      0.99250010       343.76800       2.0061757     0.015417531
       742.99999       292.01691       98549.035       13194.113       4.1017500       2.7577500     -0.19250000       343.04500       2.0655139     0.017904546
       748.00001       292.09641       98569.515       13323.926       3.3835000       2.8225000     -0.46800000       343.00800       2.0556235     0.012432756
       752.99998       292.13737       98564.393       13398.417       3.3695000       2.4125000     -0.46850000       343.15600       2.3607638     0.011442899
       757.99999       292.14539       98548.362       13461.315       2.4010000       1.2495000     -0.23250000       343.58600       2.2698767     0.011150102
       763.00001       292.16556       98550.886       13489.429       1.9330000       1.0620000      0.85850010       343.99000       2.4399822     0.011383663
       767.99998       292.20167       98548.781       13499.000       4.5705000       2.2140000    -0.045500000       343.52600       2.1560211     0.014490884
       773.99999       292.20018       98562.181       13460.487       3.0277500       2.7860000     -0.53450000       343.52600       2.3753076     0.010880899
       779.00000       292.20029       98569.115       13429.865       3.2117500      0.13900000     -0.98150000       343.61300       2.5235033     0.012520286
       784.00001       292.20031       98551.809       13396.744       3.6902500       1.6625000     -0.56450000       342.93100       3.3905803     0.011311317
       788.99999       292.20042       98547.237       13363.278       2.0265000       1.0197500       1.1957500       343.63000       2.4777015     0.014725335
       794.00000       292.20054       98548.790       13328.967       2.3130000       1.0505000     -0.12325000       343.24700       2.3551319     0.014704384
       799.00001       292.20699       98562.185       13300.085       2.2362500       2.2177500     -0.56150000       343.28100       2.1766159     0.010267630
       803.99998       292.18548       98559.764       13242.721       2.6920000       2.5457500     -0.15100000       343.43200       2.0553292     0.014985914
       809.00000       292.13792       98554.074       13152.764       1.2730000       2.7337500      0.46475000       343.79500       1.9692470    0.0099102979
       814.00001       292.19154       98561.544       13190.053       3.4840000       3.6115000     -0.33975000       343.43600       1.9424330     0.013787637
       818.99998       292.20222       98560.648       13195.291       4.0980000       2.4332500     0.070250000       343.35700       1.9689811     0.014241340
       824.00000       292.22586       98565.348       13245.841       2.6180000       3.9282500     -0.59600000       343.05600       2.0134839     0.011960076
       829.00001       292.25689       98567.774       13294.631       3.9745000       2.6640000     0.092500000       343.48500       1.9428992     0.012430725
       833.99998       292.24514       98551.870       13296.844       1.5640000       2.2637500     -0.16200000       343.44200       1.9176277    0.0099156554
       839.00000       292.24387       98547.250       13316.375       2.8842500       2.3967500     0.096250010       343.36200       1.9279870     0.010376339
       844.00001       292.25483       98548.753       13351.052       2.7502500       2.5322500     -0.60875000       343.12200       1.9481259     0.013480586
       848.99998       292.29300       98562.189       13421.859       1.8527500      0.97175000    -0.067500000       343.90500       1.9358711     0.013679675
       853.99999       292.34466       98559.798       13474.189       2.7222500       1.7997500     -0.43550000       343.45600       2.0751697     0.012971549
       859.00001       292.41176       98554.049       13534.482       2.1237500       1.5180000     -0.79750000       343.59600       2.0995083     0.011312002
       865.00002       292.41152       98561.379       13503.766       2.4912500       2.2460000     -0.43475000       343.45900       2.3282107     0.013635353
       869.99999       292.40909       98560.465       13498.095       2.2297500       1.3885000     -0.11550000       343.44200       2.2478199     0.014244820
       875.00000       292.33359       98566.195       13457.968       1.6345000      0.77275000      0.44700000       343.93500       2.6637122     0.013618712
       880.00001       292.28536       98567.677       13423.391       2.4620000      0.56825000     -0.16675000       343.80000       2.5276640     0.011757807
       884.99999       292.26672       98550.231       13428.602       3.8847500       2.1227500    -0.047250000       343.73200       2.2208768     0.011392215
       890.00000       292.24677       98546.925       13408.199       2.9145000      0.90950010     -0.31075000       343.22900       2.3002234     0.014047124
       895.00001       292.22400       98561.303       13351.848       1.5752500      0.61400000      0.45125000       344.11700       2.4725842     0.013165498
       899.99999       292.19367       98561.912       13305.437       2.0847500      0.65975000     -0.91775010       343.54100       2.5221811     0.011420694
       905.00000       292.17951       98552.295       13263.216       3.0767500       1.4912500     -0.26925000       343.85300       2.5689769     0.011480777
       910.00001       292.14830       98554.471       13219.143       2.9725000       1.7912500      0.33200000       344.07800       2.8934238     0.015932458
       914.99999       292.08964       98562.570       13167.434       3.6770000       1.2967500     -0.13700000       343.50900       2.9359984     0.014464968
       920.00000       292.04026       98560.475       13122.437       1.7632500     0.028000000      0.61275010       343.45200       2.5394583     0.015063243
       925.00001       291.96182       98558.527       13043.585       2.9872500       1.0360000     -0.23100000       343.73800       2.4842813     0.012635066
       929.99998       291.93449       98561.392       13033.154       3.0942500       2.3927500     0.079000000       344.00000       2.2252351     0.012100974
       935.00000       291.95783       98556.926       13084.071       2.5297500       1.4835000      -1.0727500       343.52800       2.3783994     0.013040859
       940.00001       291.94789       98553.119       13106.617       3.8315000       2.2207500     -0.72300000       343.30000       2.7896891     0.011418270
       944.99998       291.94231       98561.925       13157.922       3.7477500       1.1802500      -1.0830000       343.46800       2.6293060     0.015111185
       950.00000       291.95275       98562.526       13209.261       3.3417500       1.1615000    -0.054000000       343.65400       2.3208202     0.013385462
       956.00000       291.94417       98543.648       13250.809       1.6857500       1.1067500      0.41500000       344.12100       2.2472276     0.015455183
       960.99998       291.94798       98542.417       13279.020       2.0782500       1.4715000      0.11775000       343.79600       2.4118452     0.017030479
       965.99999       291.95589       98558.630       13309.015       4.1197500       2.1515000      0.73200010       343.79400       2.7179490     0.014970625
       971.00000       292.01283       98556.125       13359.116       2.0117500       1.2357500      0.66925000       343.98900       2.8198889     0.012977675
       976.00002       292.11165       98543.382       13408.909       3.8635000       2.7452500     -0.53825000       343.60400       2.4357373     0.013315880
       980.99999       292.17181       98545.116       13449.202       2.0502500       1.2502500      0.69025000       343.85600       2.8022990     0.014267853
       986.00000       292.29665       98544.673       13529.778       4.0485000       1.3817500     -0.15200000       343.07600       2.7813446    0.0099472135
       991.00002       292.33179       98543.868       13562.953       3.0025000       1.1222500     0.033250000       343.47800       2.7756588     0.011482194
       995.99999       292.28731       98557.559       13565.223       4.9142500       2.6490000     -0.25875000       342.77300       2.7260860     0.014413069
       1001.0000       292.24009       98564.451       13541.532       2.8100000       2.8950000     -0.61725000       343.39200       2.4229250     0.010894172
       1006.0000       292.10275       98558.999       13453.290       2.1622500       2.6725000      0.55000000       343.59900       2.4841147     0.012122333
       1011.0000       292.07468       98559.765       13433.990       2.4717500       2.5857500    -0.035250000       343.20200       2.3922656     0.016291757
       1016.0000       292.08563       98575.828       13425.330       3.0587500       2.0582500     -0.36850000       343.42400       2.5279748     0.017978728
       1021.0000       292.09273       98572.308       13413.524       2.2092500     -0.17725000     -0.61800000       343.52100       2.8474856     0.014308904
       1026.0000       292.17628       98544.961       13455.442       2.9750000      0.86050000      0.12150000       343.65500       2.8910087     0.011247050
       1031.0000       292.22249       98541.869       13464.392       2.5652500      0.58450000      0.43425000       344.03800       2.5940137     0.015139142
       1036.0000       292.23808       98546.025       13427.581       2.3147500     -0.62125000      0.61950000       343.58300       2.3269533    0.0097949224
       1042.0000       292.26230       98543.600       13423.415       3.3402500      0.33575000   -0.0080000000       343.38200       2.5627864     0.012928858
       1047.0000       292.27693       98555.949       13430.744       4.1467500      -1.3700000      0.71175000       343.43100       2.4643339     0.013164353
       1052.0000       292.32289       98558.488       13456.967       4.6765000      0.70850000      0.11250000       343.37000       2.4471902     0.013767275
       1057.0000       292.36173       98544.883       13489.851       3.9177500      0.80775000     -0.38975000       343.47000       2.7383540     0.012638901
       1062.0000       292.43354       98542.854       13549.129       3.8357500      0.79975000      0.37700000       344.00900       3.2178101     0.012481919
       1067.0000       292.59331       98551.381       13651.152       3.0040000       1.0837500     -0.73925010       343.30200       2.8433421     0.011429332
       1072.0000       292.64441       98551.093       13724.788       2.8802500      0.68900000      0.29725000       343.77800       2.4874268    0.0099844692
       1077.0000       292.65610       98542.765       13824.043       3.0710000     -0.55225000      0.17050000       343.81400       2.6223741     0.014084172
       1082.0000       292.66381       98545.678       13867.708       2.7760000      -1.1262500      0.31125000       343.46300       2.5848739     0.014142592
       1087.0000       292.60039       98558.692       13877.275       2.3317500     -0.21525000      0.18100000       343.76600       2.5457401     0.013350419
       1092.0000       292.58653       98555.259       13875.609       3.8672500      0.11750000    -0.018250000       343.53300       2.5522964     0.012725944
       1097.0000       292.58913       98543.363       13832.417       4.8520000     -0.65925000      0.13675000       343.68000       2.4057219     0.010005240
       1102.0000       292.60558       98545.594       13810.109       4.6212500     -0.77575000     -0.26150000       343.49400       2.1994685     0.010077797
       1107.0000       292.63098       98545.191       13776.271       4.5077500      0.56200000      0.12700000       343.19300       2.1311525     0.014046382
       1112.0000       292.66702       98543.488       13759.440       4.3512500     -0.52200000     -0.39425000       343.43800       2.1365045     0.013607933
       1117.0000       292.72912       98556.633       13741.704       2.8692500      0.11025000      0.23975000       343.78200       2.0325311     0.013801762
       1122.0000       292.77950       98559.181       13749.548       3.3985000      0.48700000      0.26050000       344.35600       2.2114032    0.0098617522
       1127.0000       292.81832       98542.620       13751.811       2.8955000     -0.53750000      0.12700000       344.37000       2.9484041     0.015827723
       1133.0000       292.89966       98544.654       13832.833       2.5172500       1.8027500      0.24575000       343.77500       3.2455573     0.011970748
       1138.0000       293.00596       98562.653       13987.386       3.3412500       1.5732500     -0.20925000       343.37600       2.9511276     0.012774740
       1143.0000       293.03898       98562.227       14027.237       3.4170000      0.92325000    -0.050250000       342.92900       2.6486079     0.016147202
       1148.0000       293.05997       98554.517       14062.220       3.2335000      0.58350000     -0.20675000       343.32000       2.4875156     0.014132871
       1153.0000       293.06252       98556.387       14067.846       2.9390000      0.72925000     -0.38200000       343.25900       2.4512240     0.012630299
       1158.0000       292.99732       98557.781       13981.358       2.1977500       1.1595000      0.12775000       343.24900       2.7565869     0.013593263
       1163.0000       292.98634       98551.084       13955.760       2.2367500       1.9795000   -0.0020000000       343.55800       2.6097454     0.014638430
       1168.0000       292.99124       98543.702       13960.237       1.7555000       3.1785000     -0.59525000       343.41000       2.3800197     0.012794476
       1173.0000       293.01022       98546.561       13950.953       3.2215000       2.7122500     -0.45175000       342.84900       2.0712562     0.010766672
       1178.0000       293.05574       98544.795       13938.299       3.1550000       1.8902500     -0.28500000       342.96200       2.0093597     0.012637458
       1183.0000       293.05702       98543.571       13907.734       2.4977500       1.3217500     -0.55925000       342.99500       1.9746316    0.0098939086
       1188.0000       293.03957       98555.463       13866.125       2.1595000      0.94775000     0.036250000       343.89400       2.0545430     0.010769217
       1193.0000       293.06825       98560.711       13854.572       3.1457500      0.97550000     -0.50975000       343.49900       2.2387546     0.012380853
       1198.0000       293.08894       98553.283       13826.644       1.8862500       1.0942500     0.047000000       343.64900       2.2680827     0.010592906
       1203.0000       293.11738       98555.874       13835.184       1.3485000     0.015000000      0.47625000       344.39700       2.2645361     0.014844997
       1208.0000       293.23478       98573.129       13916.059       2.0037500       2.2887500     -0.77975000       343.68600       2.4466327     0.013532606
       1213.0000       293.20049       98572.701       13899.082       1.5705000       1.2950000      0.47150000       344.63200       2.4510273     0.012535869
       1218.0000       293.06252       98559.267       13839.305       4.1335000       2.1820000     -0.85175000       343.47200       2.4006554     0.014822712
       1224.0000       292.91582       98566.778       13741.664       3.6000000      0.88075010      0.39275000       344.41400       2.2728048     0.014184979
       1229.0000       292.86839       98562.252       13714.817       2.4582500      0.86225000     -0.35525000       343.94900       2.0763692     0.012760983
       1234.0000       292.94532       98544.662       13766.754       2.0622500    0.0020000000     -0.33000000       344.66900       2.2567978     0.011780968
       1239.0000       292.99371       98543.261       13806.219       2.1402500      0.17725000      0.25375000       345.25800       2.4804038     0.013483408
       1244.0000       293.05438       98545.553       13858.938       2.7880000      0.78925000      0.50300000       344.98300       2.5716858     0.018608590
       1249.0000       293.16146       98543.723       13949.045       3.4682500     -0.39375000      0.43900000       344.70600       2.4425631     0.010983784
       1254.0000       293.19850       98543.101       13995.038       3.0322500     0.055500000      0.40275000       343.76100       2.2357716     0.016088051
       1259.0000       293.20584       98556.580       14027.817       2.8257500      0.59925000    -0.050000000       344.93200       2.0889964     0.013037844
       1264.0000       293.18512       98556.815       14026.972       3.3742500       1.7152500     -0.27150000       343.74700       2.2684376     0.015776047
       1269.0000       293.19378       98554.675       14054.603       3.7330000       1.6965000     -0.48925000       343.53600       2.7637348     0.014836088
       1274.0000       293.23028       98561.423       14105.281       2.3975000       1.3647500     0.069750000       344.09800       3.5282872     0.011803759
       1279.0000       293.25005       98562.854       14139.633       2.8510000       1.8610000    -0.037250000       343.68000       2.4537678     0.012478657
       1284.0000       293.29980       98545.779       14225.612       2.0040000       2.2652500     -0.86350010       344.19300       2.3522993     0.010063022
       1289.0000       293.31226       98542.153       14244.063       3.2390000       1.5240000      0.41950000       344.39400       2.3490467     0.012973952
       1294.0000       293.30013       98544.694       14221.463       2.6992500       1.3960000     -0.25650000       344.16700       2.9650623     0.016551366
       1299.0000       293.25728       98557.630       14152.351       4.4460000       1.2667500     -0.13000000       344.08900       2.9525559     0.016083532
       1304.0000       293.21547       98552.088       14087.788       2.8207500      0.30075000     -0.38275000       344.89800       2.1973614     0.012159770
       1309.0000       293.14424       98544.386       13966.791       4.1655000       1.8877500     -0.95525000       343.90000       2.2765950     0.014505193
       1315.0000       293.13786       98549.454       13980.010       4.1612500       1.0577500     0.067250010       343.82000       2.5147076     0.012770862
       1320.0000       293.09668       98544.488       13934.413       3.3175000      0.87725000     -0.42250000       343.18300       2.6569305     0.014522233
       1325.0000       293.01730       98541.278       13841.012       2.3097500      0.15325000      0.83825000       344.43100       2.2149754     0.013242457
       1330.0000       292.98878       98546.235       13813.426       3.8140000     -0.24875000    -0.065000010       343.81200       2.9047129     0.012273093
       1335.0000       292.95262       98546.113       13758.228       4.1535000      0.82600000     -0.22525000       343.89200       2.9738643     0.011877216
       1340.0000       292.93542       98543.389       13748.527       3.6195000      0.36425000     -0.24225000       343.34400       2.7298864     0.013444646
       1345.0000       292.97570       98555.087       13833.801       3.5725000     -0.43925000      0.51600000       344.32100       2.3321505     0.013469192
       1350.0000       293.00591       98558.510       13896.103       2.5842500     0.036750000     0.054000000       344.34100       2.0517406     0.014151791
       1355.0000       293.02058       98538.913       13958.912       2.7352500     -0.71200000      0.13400000       344.39300       1.9944863    0.0096789174
       1360.0000       293.05199       98536.611       14015.315       3.1235000     -0.17775000     -0.24850000       343.82100       1.9512964     0.012538267
       1365.0000       293.12493       98554.841       14078.949       2.8832500     -0.17800000      0.16950000       344.17800       2.0183139     0.013454057
       1370.0000       293.16319       98557.392       14139.772       2.5560000     -0.30675000     -0.46500000       344.31900       2.3698597     0.011161034
       1375.0000       293.20454       98552.936       14201.698       3.3630000       1.1477500    -0.049500000       344.45700       2.2064808     0.015158286
       1380.0000       293.21216       98555.938       14243.240       3.4977500      0.59100000      0.43325000       343.47900       2.5461040     0.013379768
       1385.0000       293.16691       98560.641       14278.445       5.0847500      0.85975000     -0.67450000       343.44800       2.1435241     0.010259266
       1390.0000       293.14689       98555.410       14306.360       4.6832500      0.42550000     -0.28800000       344.04500       2.2673443     0.011353619
       1395.0000       293.13808       98543.209       14327.335       4.4210000    -0.041250000     -0.17775000       343.18400       2.3700479     0.011522793
       1400.0000       293.09637       98544.527       14318.461       4.2915000       1.1887500      0.36750000       343.69000       2.2247093     0.014817016
       1406.0000       293.03550       98548.475       14287.994       3.9437500      0.22325000      0.24050000       344.01700       2.3630739     0.010433985
       1411.0000       292.98168       98543.511       14250.871       4.8380000     0.050750000      0.13425000       343.79300       2.0996048     0.011130335
       1416.0000       292.88459       98544.962       14175.761       3.5892500    -0.049500000     -0.11025000       343.83600       2.1392594    0.0099805933
       1421.0000       292.81875       98547.215       14113.227       2.3830000      -1.8535000     0.028500000       344.33100       2.0773945     0.010046719
       1426.0000       292.78101       98533.933       14059.572       3.0610000      -1.9607500     -0.34600000       343.40800       1.9602686     0.010533277
       1431.0000       292.73085       98531.892       13992.182       2.1532500      -1.0772500    0.0035000000       343.51100       2.0394022     0.015128682
       1436.0000       292.65460       98548.860       13881.040       3.4802500      -2.0930000      0.23000000       343.88700       2.0238572     0.010363636
       1441.0000       292.63225       98553.836       13838.870       4.4635000     -0.53350000     -0.22500000       343.62400       1.9662687     0.013035731
       1446.0000       292.65658       98547.771       13827.600       3.4200000      -1.9855000    -0.051500000       343.29000       1.9620224     0.011614388
       1451.0000       292.64665       98550.518       13819.850       3.2965000      -1.9665000     0.026000000       343.55200       1.9565662     0.011492059
       1456.0000       292.64364       98561.686       13847.133       3.9300000     -0.62000000     -0.40225000       343.22200       1.9635328     0.013529304
       1461.0000       292.65331       98561.480       13887.390       2.4675000      0.99475000      0.31425000       344.17500       1.9952892     0.014260115
       1466.0000       292.65557       98554.176       13957.285       1.9917500      0.15450000    -0.091250000       343.29000       2.2913569     0.010952795
       1471.0000       292.64534       98555.565       13985.385       2.2877500     -0.71375000     -0.25650000       343.68200       2.3072755     0.012448957
       1476.0000       292.64440       98559.794       14007.658       1.7662500     -0.39500000     0.038750000       343.76200       2.3776193     0.010413238
       1481.0000       292.65429       98554.065       14047.125       2.0035000      -1.1422500    -0.077500000       343.81600       2.2685243     0.013121041
       1486.0000       292.65558       98543.273       14071.703       1.6852500     -0.91125010      0.15150000       343.81900       2.2807439     0.012328072
       1491.0000       292.64513       98545.091       14083.541       1.9580000     0.090500000      0.13400000       344.04000       2.2705686     0.012641182
       1497.0000       292.65662       98547.490       14127.513       2.4710000      0.24875000     -0.16100000       344.11300       2.1700296     0.011769636
       1502.0000       292.65052       98542.507       14141.262       2.8045000      0.95775000      0.56775000       344.25100       2.2803483     0.013035550
       1507.0000       292.60029       98543.242       14107.002       4.1042500     -0.18025000      0.13800000       343.72700       2.1785663     0.013243648
       1512.0000       292.58649       98548.161       14098.106       4.5055000       1.6095000     -0.12200000       343.16400       2.1962403     0.010820427
       1517.0000       292.61144       98544.708       14123.502       2.2372500      0.69850000      0.27250000       343.55100       2.4581605     0.011026575
       1522.0000       292.59474       98543.035       14099.543       4.0165000      0.43425000     0.049750000       344.06900       2.4351855     0.012000635
       1527.0000       292.56926       98555.938       14055.942       2.1257500     -0.91475000      0.22375000       344.24800       2.4847580     0.011507931
       1532.0000       292.53306       98558.475       13995.420       2.5537500      0.65100000      0.34525000       344.60000       2.1823038     0.012576816
       1537.0000       292.45731       98544.692       13888.969       2.7810000     -0.75675000     -0.10600000       344.13300       2.5226751     0.013053846
       1542.0000       292.42318       98542.524       13822.899       4.2340000      0.38025000     -0.37950000       343.89000       2.6494670     0.011513304
       1547.0000       292.38914       98551.363       13738.226       5.2330000      0.17450000      0.82275000       343.63500       2.1549830     0.012884516
       1552.0000       292.39171       98551.086       13714.026       3.8220000      0.19600000      0.21500000       343.73500       2.2333640     0.011658799
       1557.0000       292.44227       98542.795       13742.624       2.8922500    -0.045250000     -0.48475000       343.91100       2.3307460     0.015161129
       1562.0000       292.46212       98545.611       13753.556       2.9020000      0.77700000     0.090250010       343.96700       2.4898286     0.012209669
       1567.0000       292.51109       98552.686       13807.253       3.2630000      0.13150000      0.16625000       343.47900       2.7013102     0.011482823
       1572.0000       292.50837       98557.312       13816.627       5.4895000       2.2005000     -0.64975010       343.44000       3.1444453     0.013036376
       1577.0000       292.45815       98569.878       13789.558       3.1167500       2.7845000      0.33175000       343.85900       2.8335137     0.011261313
       1582.0000       292.43812       98574.058       13795.584       2.9515000       2.2777500     -0.68525000       344.28000       2.4480660     0.011400763
       1588.0000       292.39710       98574.879       13804.967       4.4410000       1.2247500      0.10325000       344.11600       2.2586472     0.014493926
       1593.0000       292.38574       98565.587       13815.663       3.9327500       2.1115000     -0.44425000       344.39200       2.5385599     0.010686312
       1598.0000       292.40870       98542.699       13867.897       3.8957500       1.7415000     -0.13775000       343.47400       2.5954891     0.010620109
       1603.0000       292.39007       98542.053       13837.872       3.9987500       1.8060000     0.060250000       343.70900       2.7429517     0.011935617
       1608.0000       292.35508       98546.039       13759.864       4.4870000       1.3287500     -0.25575000       343.45600       2.7664718     0.011421301
       1613.0000       292.33508       98541.090       13710.949       4.3660000       2.1152500     -0.21175000       343.42000       2.9968271     0.014411824
       1618.0000       292.30587       98544.228       13631.231       4.6452500      0.90425000     -0.38275000       343.62900       2.6141210     0.013355582
       1623.0000       292.27573       98549.357       13569.110       3.7170000       1.2617500     -0.54225000       343.41800       2.6882987     0.011351351
       1628.0000       292.24431       98544.795       13520.635       2.5690000       1.5562500     -0.39925000       343.63400       2.8219009     0.013630002
       1633.0000       292.24303       98543.571       13492.064       3.9665000       1.4452500     -0.61225000       343.37400       3.2668780     0.012937007
       1638.0000       292.24309       98557.185       13453.146       5.5692500       1.7522500     -0.53950000       343.26800       3.0762008     0.011441816
       1643.0000       292.25194       98558.653       13447.961       5.8325000       2.3102500     -0.89775000       343.13900       2.8918122     0.012447908
       1648.0000       292.28445       98544.924       13472.380       4.4480000       2.2870000     -0.34975000       343.49000       2.6593215     0.013570827
       1653.0000       292.33268       98541.651       13526.156       3.1667500       4.1732500      0.27225000       343.65100       2.2365167     0.013690333
       1658.0000       292.39971       98546.158       13614.310       3.0960000       1.2770000      0.42850000       344.17100       2.3398762     0.011155887
       1663.0000       292.42122       98545.318       13667.305       4.4750000      0.97075000      0.49800000       343.96000       2.7469945     0.016100738
       1668.0000       292.45064       98539.309       13742.241       5.6197500       1.8875000     -0.29850000       343.31500       2.7239236     0.014320928
       1674.0000       292.47498       98543.266       13830.819       5.4200000       1.3295000       1.0210000       343.73600       2.8379444     0.011710048
       1679.0000       292.45651       98545.305       13855.509       2.9212500       3.7297500      -1.7657500       342.91700       2.5544783     0.012668466
       1684.0000       292.46997       98545.807       13901.848       4.9445000       2.1785000     -0.18200000       343.16700       2.2753102     0.010995602
       1689.0000       292.42528       98549.638       13886.382       2.9655000      0.55300000    -0.072250000       343.92600       2.3435805     0.015270239
       1694.0000       292.33143       98554.705       13816.274       4.1410000       2.4605000      0.56000000       343.55900       2.3933355     0.011108726
       1699.0000       292.14057       98562.311       13650.061       2.7307500       3.5790000     0.093500000       343.72800       2.4618466     0.012827600
       1704.0000       292.06295       98559.939       13565.774       3.0475000       1.7795000      0.79850010       343.88200       2.4457061     0.016628677
       1709.0000       291.97660       98554.518       13465.383       3.2450000       2.4230000     0.067750010       343.85700       2.2728450     0.010651776
       1714.0000       292.04515       98558.352       13448.343       3.7157500       3.6937500      -1.3462500       343.43200       2.3350424     0.010863290
       1719.0000       292.05665       98555.393       13407.374       4.5152500      0.72850000    -0.094750000       343.98800       2.4350532     0.011230830
       1724.0000       292.05503       98552.448       13352.170       4.2160000       3.2087500      0.42225000       343.46900       2.1213884     0.010876041
       1729.0000       292.05595       98555.435       13312.911       3.0002500       2.0977500      0.15950000       343.56100       1.9546717     0.012950933
       1734.0000       292.02977       98561.325       13264.432       2.2370000       1.4105000      0.35275000       343.60200       2.0569501    0.0096632234
       1739.0000       291.99990       98556.645       13231.795       2.8035000       2.1300000     -0.35000000       343.47200       2.1473453     0.010843374
       1744.0000       291.97004       98549.494       13213.487       2.2827500       2.1367500    0.0042500000       343.53800       2.2015826     0.012107100
       1749.0000       291.95067       98544.115       13213.928       2.9370000       1.3632500     -0.41525000       343.33600       2.0506131     0.011151608
       1754.0000       291.93038       98547.287       13227.700       1.8545000      0.62050000      0.61100000       343.73100       2.0604149     0.012736037
       1759.0000       291.88900       98544.362       13249.074       3.7952500       1.8000000    0.0057500000       343.38600       2.5089388     0.011363014
       1765.0000       291.94863       98550.940       13348.803       4.2627500       1.8775000      0.36375000       343.44200       2.4898285     0.010961142
       1770.0000       291.95774       98557.796       13394.008       3.6935000       1.5560000      0.10275000       343.49300       2.4860377     0.011011149
       1775.0000       291.94230       98557.781       13409.022       4.8380000       3.9682500      -1.2030000       343.22100       2.4776186     0.011698171
       1780.0000       291.95226       98554.839       13454.080       4.1420000       1.5020000      0.75700000       343.49000       2.1390762     0.012152798
       1785.0000       291.97245       98557.573       13519.125       3.5527500       3.5282500     -0.25400000       343.08200       2.4266931     0.010654470
       1790.0000       291.95104       98557.224       13534.146       3.6532500       3.1380000    -0.060250000       343.21900       2.5364591     0.016227001
       1795.0000       291.90839       98539.063       13548.161       2.9307500       2.3620000     -0.13950000       343.41700       2.1995869     0.011209825
       1800.0000       291.89884       98536.813       13551.501       2.2180000       1.6992500      0.22450000       343.32300       2.2190270     0.010355740
       1805.0000       291.83940       98550.711       13471.698       2.2667500       1.5805000      -1.3950000       343.23600       2.2654170     0.013968472
       1810.0000       291.83272       98556.767       13446.260       2.8575000       2.1505000     -0.14425000       343.51100       2.3544741     0.010104091
       1815.0000       291.91081       98570.318       13456.824       2.9425000       1.6370000      0.11525000       343.49600       3.1459671     0.012137386
       1820.0000       291.96047       98573.599       13475.634       1.1650000      0.90375010      0.24950000       343.68700       2.6131073    0.0099829910
       1825.0000       292.03830       98564.965       13546.900       1.5372500      0.65725000     -0.15225000       343.71900       2.7738564     0.011160151
       1830.0000       292.06560       98559.927       13564.530       2.8060000       1.3765000     -0.50875000       343.25700       2.5677417     0.010134310
       1835.0000       292.04242       98544.661       13554.175       2.1645000      0.77125000     -0.40375000       343.42100       2.3804078    0.0092755040
       1840.0000       292.05236       98542.371       13560.156       1.9580000       1.1035000      0.12900000       343.57300       2.3261939    0.0091230167
       1845.0000       292.05794       98554.371       13544.416       2.0202500       1.9080000      0.20575000       343.47200       2.4701472     0.011178169
       1850.0000       292.04752       98556.268       13526.352       2.1447500       2.0092500     -0.69500010       343.34400       2.8882915    0.0094777936
       1856.0000       292.05662       98558.545       13526.405       3.4630000       1.5445000    -0.033000000       343.24100       2.4150902     0.010968990
       1861.0000       292.05300       98562.211       13519.039       3.5322500       2.5095000     -0.25875000       343.49400       1.9884736     0.010718811
       1866.0000       292.01798       98562.973       13494.580       4.2115000       3.7887500     0.071750000       343.24700       2.0028494    0.0092878073
       1871.0000       291.98824       98559.714       13466.536       2.7062500       2.3045000      0.25175000       343.31300       1.9249325     0.010777061
       1876.0000       291.94940       98554.116       13419.878       3.7612500       3.7960000     -0.80600010       343.26400       2.0496882     0.010384126
       1881.0000       291.94333       98555.514       13416.301       2.7160000       1.8985000     -0.34050000       343.27600       1.9834880     0.011445755
       1886.0000       291.95623       98559.710       13429.468       2.3325000       2.6732500     -0.25900000       343.33500       2.0226347     0.012489100
       1891.0000       291.94600       98553.901       13433.250       1.9612500       1.8875000      0.29825000       343.42900       2.0767581    0.0095618370
       1896.0000       291.95661       98543.070       13480.101       4.4395000       4.2015000     -0.38275000       342.95600       1.9876980     0.012510992
       1901.0000       291.95293       98544.798       13493.248       3.3477500       2.0107500     -0.34575000       343.21600       2.1002238     0.010565111
       1906.0000       291.90468       98548.457       13468.494       4.9532500       3.6215000     -0.63450000       343.05500       2.0952379     0.011732988
       1911.0000       291.88863       98543.621       13456.495       2.3305000       1.2237500       1.8502500       343.48800       2.1784355     0.010016150
       1916.0000       291.91324       98542.260       13455.832       1.1987500       3.8745000      0.65200000       343.31400       1.9433166    0.0099153107
       1921.0000       291.89978       98547.220       13434.726       3.0140000       4.0517500     -0.26725000       343.19800       1.9808942    0.0089524942
       1926.0000       291.86341       98548.300       13389.982       2.1267500       3.5140000     -0.83175000       343.28200       1.9432466    0.0090695063
       1931.0000       291.84347       98543.411       13363.374       1.4460000       1.7397500      0.55525000       343.45100       1.9861912    0.0098572742
       1936.0000       291.80561       98540.797       13322.495       3.1592500       1.7635000    0.0077500000       343.25900       2.0618450     0.011769549
       1941.0000       291.78923       98547.290       13309.479       4.0057500       3.5757500     -0.83400010       343.12800       2.1316750    0.0098977866
       1947.0000       291.79993       98552.809       13319.578       3.4377500       2.3030000      0.40925000       343.34500       1.9885318     0.010122163
       1952.0000       291.79993       98548.214       13336.878       3.9867500       3.7162500    -0.088500000       343.11000       2.0614178     0.010052555
       1957.0000       291.81110       98547.934       13388.276       3.8597500       2.5107500      0.26025000       343.25800       1.9395861     0.012087043
       1962.0000       291.79487       98553.904       13396.736       3.5007500       2.3292500    -0.029500000       343.31000       2.1353616     0.012415724
       1967.0000       291.75877       98552.492       13385.905       2.6990000      0.89475010      0.76675000       343.45900       2.6090767     0.012569414
       1972.0000       291.73865       98546.560       13394.259       3.1197500       3.8762500      -1.0645000       343.36700       2.5319463     0.013421730
       1977.0000       291.70093       98547.751       13386.667       4.8092500       2.7482500     -0.35100000       343.15400       2.6413615    0.0099122165
       1982.0000       291.68707       98553.854       13390.515       3.4515000       2.6475000      0.36525000       343.26300       2.2659939     0.010620360
       1987.0000       291.68893       98552.793       13411.942       2.9230000       1.7920000      0.10625000       343.28800       2.2483249     0.010417878
       1992.0000       291.70512       98546.801       13439.436       3.1830000      0.83925000     -0.27200000       343.32600       2.4573876     0.010990191
       1997.0000       291.75360       98549.127       13479.805       3.8702500      0.94700000      0.40525000       343.27800       2.5090394    0.0098889378
       2002.0000       291.75712       98553.477       13486.647       5.5397500       1.6552500     -0.71250000       343.04000       2.7333430     0.013716134
       2007.0000       291.74626       98547.605       13481.417       5.1090000       1.9465000     0.097250010       343.24600       2.7987009     0.010134396
       2012.0000       291.75638       98541.367       13501.185       3.3540000       1.4702500     -0.14225000       343.30600       2.5379182    0.0091500082
       2017.0000       291.75375       98542.170       13517.371       3.3207500      0.68100010     -0.14950000       343.25000       3.0855428     0.011173642
       2022.0000       291.74384       98548.688       13509.625       3.0587500       2.0932500     -0.84300010       343.20600       2.6122926     0.011049549
       2027.0000       291.73455       98550.353       13496.681       3.2232500       2.2442500     -0.47650000       343.26200       2.7645579    0.0095897890
       2032.0000       291.76097       98548.875       13524.098       2.0937500       1.3972500     -0.13000000       343.28600       2.5069303    0.0092779498
       2038.0000       291.79925       98560.871       13551.718       2.7075000       1.2675000     -0.20050000       343.29300       2.2436662     0.010324019
       2043.0000       291.80926       98565.344       13559.388       2.0717500       1.9965000    -0.066000000       343.41800       2.3482359    0.0093705084
       2048.0000       291.85074       98557.532       13610.899       1.2235000       1.3647500      0.20350000       343.39300       2.9958659     0.010261996
       2053.0000       291.87162       98549.749       13630.594       2.5547500      0.96600000     -0.61500000       343.28400       3.0926393    0.0091199702
       2058.0000       291.85145       98543.926       13599.261       2.8440000       1.0042500     0.079500000       343.25900       2.9761252    0.0088866271
       2063.0000       291.84146       98546.645       13587.795       3.3700000       2.3380000      0.20525000       343.33900       2.9994485     0.016143254
       2068.0000       291.86530       98544.482       13605.965       3.1170000       1.1737500      0.28200000       343.19300       3.2939708     0.011456131
       2073.0000       291.83755       98543.127       13594.995       3.0552500      0.71150000      0.42875000       343.50300       3.4001814    0.0095338146
       2078.0000       291.75862       98555.122       13549.968       1.6952500       1.0155000      0.39950000       343.59400       3.3596816     0.010162960
       2083.0000       291.70855       98560.369       13519.616       3.2785000       1.2350000      0.12650000       343.31200       2.7087701    0.0090717111
       2088.0000       291.65117       98555.826       13499.171       2.4362500      0.48450000      0.24600000       343.63600       2.4062907    0.0091241400
       2093.0000       291.62029       98552.816       13472.235       2.5730000       2.1030000     -0.33525000       343.48400       2.6907965    0.0096337578
       2098.0000       291.58764       98554.735       13422.677       3.1665000       2.0035000    -0.059000000       343.65400       2.8356184     0.011085568
       2103.0000       291.59462       98557.745       13411.268       3.0902500       2.3430000      0.43175000       343.41100       2.1883479    0.0086568513
       2108.0000       291.64594       98555.738       13425.085       2.4660000       1.7435000     -0.73125000       343.42600       2.4720715    0.0082172525
       2113.0000       291.66648       98552.737       13424.882       1.9760000      0.98500010      0.24575000       343.67200       2.6730201    0.0086584364
       2118.0000       291.69377       98554.642       13429.430       2.8547500       2.8187500     -0.43850000       343.32700       2.7301075     0.010060959
       2123.0000       291.72391       98557.677       13445.161       2.7377500       2.4570000      0.47750000       343.37100       2.5568375    0.0097856440
       2129.0000       291.75712       98555.510       13468.224       4.0022500       1.7530000     -0.11675000       343.11200       3.0313637    0.0094429397
       2134.0000       291.75510       98552.393       13477.986       2.1007500       1.1297500      0.98375000       343.63900       2.7335027    0.0093120365
       2139.0000       291.75623       98555.380       13491.312       2.0475000      0.57275000      0.45775000       343.37100       2.7996103    0.0088100754
       2144.0000       291.74501       98558.352       13499.559       1.0910000       2.0577500     -0.17700000       343.48000       2.4272574    0.0097194246
       2149.0000       291.70052       98555.111       13494.979       3.2395000       2.0682500     -0.48375000       343.10600       2.8279199    0.0086985284
       2154.0000       291.67043       98552.118       13477.638       2.8377500       1.6555000    -0.075000000       343.24300       2.9065329    0.0097181253
       2159.0000       291.63796       98555.348       13451.271       2.2647500       1.5600000      0.33725000       343.35200       2.6718417    0.0091812816
       2164.0000       291.69109       98558.441       13489.093       1.8960000      0.89000000      0.22075000       343.55100       2.7288643    0.0088688488
       2169.0000       291.70141       98555.507       13491.630       3.8155000       2.0212500     -0.37125000       343.10800       2.3976104    0.0082360994
       2174.0000       291.74087       98552.323       13525.931       1.3655000      0.91475000      0.42150000       343.60100       2.7315373     0.010482536
       2179.0000       291.76312       98555.322       13536.246       2.1580000       1.7532500     -0.18125000       343.39500       2.9672931    0.0090379846
       2184.0000       291.73019       98561.299       13486.606       3.2597500       1.7035000      0.17175000       343.45500       2.6394966    0.0094659989
       2189.0000       291.70045       98556.560       13446.354       2.4460000       1.8862500     -0.60975000       343.43300       3.1201601    0.0097060670
       2194.0000       291.67070       98549.349       13406.541       3.2382500     -0.31200000    -0.029000000       343.29500       2.7907938     0.010264480
       2199.0000       291.64399       98544.261       13366.948       3.2842500       1.8507500     -0.28125000       343.11100       3.0296242    0.0086293345
       2204.0000       291.64499       98547.443       13349.495       3.0535000       1.4815000     -0.47850000       343.32000       2.9650615     0.011422631
       2209.0000       291.64413       98545.264       13330.659       1.3032500       1.6035000     0.051250000       343.26100       2.9635944    0.0084743865
       2214.0000       291.68512       98540.114       13356.628       2.0780000       1.0380000    -0.035750000       343.40100       2.2953537     0.011870729
       2220.0000       291.70968       98546.020       13373.812       3.4742500       1.3847500      0.22000000       343.40400       2.2947668    0.0088848967
       2225.0000       291.68593       98549.137       13373.590       3.5102500       1.0935000      0.11800000       343.22100       2.6335314    0.0085450480
       2230.0000       291.69719       98544.121       13392.391       2.2077500    -0.084500010    -0.089500000       343.41200       2.7065526     0.010658079
       2235.0000       291.74811       98541.457       13432.409       3.3582500       1.5432500     0.030500000       343.17500       2.8567418     0.010714197
       2240.0000       291.75681       98546.444       13450.937       3.9107500      0.57950000      0.45225000       343.24300       2.5966077    0.0093101400
       2245.0000       291.74232       98549.290       13448.673       3.2777500      0.53175000     -0.62525000       343.18800       2.6159394    0.0091155735
       2250.0000       291.75276       98544.210       13481.948       3.5580000       1.2740000     -0.28700000       343.33800       2.6337608    0.0083982628
       2255.0000       291.75800       98541.068       13541.502       3.0785000      0.54925000      0.16475000       343.09000       2.5441504     0.010148355
       2260.0000       291.74796       98546.013       13565.409       1.9582500       2.0022500    -0.067750010       343.13100       3.0027874     0.011870570
       2265.0000       291.74211       98549.128       13593.801       2.5595000       1.1040000     -0.36925000       343.21400       2.4824112     0.011913864
       2270.0000       291.75192       98544.130       13623.915       2.6927500       1.1857500      0.47850000       343.33000       2.6821092    0.0083223656
       2275.0000       291.74386       98541.142       13620.499       1.5360000      0.98600010     0.021000000       343.69700       2.7298796    0.0085953740
       2280.0000       291.74518       98546.060       13622.654       2.5985000       1.1125000     -0.15400000       343.27600       2.4486857    0.0078695034
       2285.0000       291.77580       98549.096       13638.595       2.4140000       1.5480000     -0.46600000       343.20800       2.5227777    0.0092649033
       2290.0000       291.80596       98544.087       13660.941       4.1822500       1.2802500     -0.71650000       343.19400       2.6091165    0.0096002181
       2295.0000       291.81989       98541.123       13665.223       2.3417500      0.80550000     0.034250000       343.45400       2.5176950     0.012113960
       2300.0000       291.85130       98546.235       13687.498       2.6405000       1.0285000     -0.49150000       343.16000       2.9938406    0.0092988415
       2306.0000       291.94705       98546.101       13772.822       2.0997500       1.9137500      0.15100000       343.46700       2.4500853    0.0093779240
       2311.0000       291.97016       98543.923       13793.325       2.7510000       1.6072500     -0.35750000       343.23200       3.2652222    0.0099194424
       2316.0000       291.94445       98552.515       13772.553       2.3665000      0.68050000     -0.37775000       343.49200       3.6467330    0.0085757003
       2321.0000       291.95452       98558.720       13777.366       1.8482500       1.2277500      0.15750000       343.48800       2.9322970    0.0085444692
       2326.0000       291.95574       98556.967       13773.462       1.3990000      0.95875010     -0.15550000       343.55800       3.1339692    0.0088241448
       2331.0000       291.94585       98553.990       13757.550       2.2112500    -0.085250010      0.44350000       343.64600       2.8457469     0.010310313
       2336.0000       291.95656       98553.489       13744.270       3.2187500       1.2992500     0.067750010       343.26100       2.3043827    0.0096797047
       2341.0000       291.95294       98556.593       13738.758       1.9292500      0.88100000      0.44950000       343.82300       2.5176308    0.0092113433
       2346.0000       291.90446       98557.176       13713.354       3.2077500       1.0537500     -0.26800000       343.42300       2.3368175    0.0092528871
       2351.0000       291.88790       98554.189       13698.610       2.6297500       1.2445000    -0.047750000       343.20100       2.1619733    0.0088625000
       2356.0000       291.88762       98556.121       13708.960       2.7842500       1.3662500      0.22675000       343.43100       2.0559592    0.0085541192
       2361.0000       291.90159       98556.340       13710.047       3.0377500       1.3467500    -0.047000000       343.10800       2.0298915    0.0076234762
       2366.0000       291.95080       98545.523       13710.369       2.8585000       1.5992500     -0.37775000       343.11400       2.0281563    0.0083632721
       2371.0000       291.95709       98542.625       13692.353       2.8672500       1.1907500     0.066500000       343.14400       2.0008378    0.0081043109
       2376.0000       291.99800       98549.831       13686.107       2.9362500       1.5570000     -0.34750000       343.28100       1.9926491    0.0098100379
       2381.0000       291.95229       98551.479       13643.313       2.7542500       1.1275000      0.72600000       343.53700       2.0072227    0.0075371182
       2386.0000       291.80449       98550.486       13551.817       2.3995000       1.9770000      0.30200000       343.36300       2.0190214    0.0077523308
       2391.0000       291.71402       98550.586       13485.372       3.6215000      0.58675000      0.58000000       343.08100       2.0097457    0.0094346181
       2397.0000       291.55881       98548.091       13388.221       2.4982500       2.6205000      0.10000000       343.26600       1.9699561    0.0087374329
       2402.0000       291.49684       98551.388       13335.938       2.8647500      0.68350010     -0.13125000       343.27100       1.9417120    0.0087193558
       2407.0000       291.48944       98558.910       13292.497       2.2307500       1.3050000     0.060250000       343.10300       1.9697010    0.0082169885
       2412.0000       291.49175       98562.939       13282.193       2.7717500      0.89350000      0.63100000       343.28000       1.9614895    0.0086581153
       2417.0000       291.54159       98573.718       13298.963       2.9347500       1.2805000     -0.42925000       343.00500       1.9673130    0.0071359725
       2422.0000       291.56188       98571.522       13325.017       2.6122500     -0.19325000      0.34850000       343.29400       1.9575710    0.0081631971
       2427.0000       291.59883       98554.336       13394.850       2.5362500      0.63350000      0.24850000       343.25800       1.9329381    0.0076461408
       2432.0000       291.61263       98553.263       13428.154       1.6185000      0.53950000     0.085500000       343.54900       1.9515547    0.0076772283
       2437.0000       291.60004       98558.893       13443.305       1.6902500      0.90675000     -0.30625000       343.42800       1.9803964    0.0091629657
       2442.0000       291.60004       98552.732       13482.336       2.7840000       1.3590000    0.0050000000       343.35800       1.9576073    0.0080781303
       2447.0000       291.58858       98543.363       13509.473       2.2455000       1.2002500      0.40850000       343.38300       1.9303770    0.0098020641
       2452.0000       291.60462       98545.594       13566.649       2.0495000       1.5457500      0.18225000       343.68000       1.9441357    0.0082211322
       2457.0000       291.64186       98547.207       13687.806       3.3630000      0.54175000     0.061500000       343.38100       1.9666589    0.0081665859
       2462.0000       291.66165       98542.214       13727.467       2.0642500      0.57375000      0.36825000       343.57800       1.9212354     0.011372147
       2467.0000       291.68782       98543.793       13741.650       2.5955000       1.6587500      0.49325000       343.40700       1.9671670    0.0087803613
       2472.0000       291.71796       98548.865       13750.512       1.9090000      0.78750000     -0.20875000       343.30800       1.9780522    0.0079484487
       2477.0000       291.74182       98547.389       13708.930       1.5280000       1.1555000      0.18525000       343.60100       1.9835333    0.0078646756
       2482.0000       291.76195       98542.320       13690.302       2.1857500       1.0962500     -0.18450000       343.36300       1.9800644    0.0079261732
       2488.0000       291.79390       98543.984       13671.611       1.8087500       1.2120000     -0.16050000       343.43700       1.9838977    0.0090556240
       2493.0000       291.82387       98548.986       13679.932       1.9647500       1.4042500     -0.40475000       343.17500       1.9798269    0.0077648220
       2498.0000       291.83705       98546.167       13693.456       2.1947500       1.2617500     -0.23475000       343.00300       1.9621888     0.010094573
       2503.0000       291.87535       98541.177       13707.645       1.7347500       1.1927500      0.10850000       343.39000       1.9286627    0.0083422117
       2508.0000       291.95791       98544.855       13764.863       2.0252500       1.5927500     0.067500000       343.18300       1.9378553    0.0080541918
       2513.0000       291.97012       98549.909       13758.997       1.9450000       1.8555000     -0.49275000       343.17100       1.9791511    0.0070943109
       2518.0000       291.95690       98544.741       13705.373       2.2332500       1.5997500     0.016500000       343.04100       1.9611887    0.0080010252
       2523.0000       291.94824       98543.523       13700.638       1.9657500      0.68900000      0.38975000       343.23200       1.9990176     0.010349276
       2528.0000       291.90544       98556.888       13697.050      0.90525010      0.73675000      0.35625000       343.55200       1.9325053    0.0076999946
       2533.0000       291.87542       98558.389       13688.525       1.7565000     -0.12500000      0.44875000       343.62900       1.9744024    0.0080399793
       2538.0000       291.84506       98544.013       13696.864       1.4402500      0.69975000     -0.10550000       343.54000       2.0094844    0.0084386075
       2543.0000       291.84382       98542.658       13707.924       1.6020000      0.89825000     -0.13550000       343.10900       1.9728659    0.0092587011
       2548.0000       291.85177       98550.669       13714.408       1.9697500       1.0650000     -0.36475000       343.33700       1.9259264     0.010404544
       2553.0000       291.84170       98551.797       13703.879       2.1955000      0.82650010      0.15900000       343.42000       1.9675478     0.011647645
       2558.0000       291.84867       98550.557       13703.162       1.4265000      0.69975000     -0.14900000       343.48200       1.9564795    0.0096903246
       2563.0000       291.85866       98550.663       13698.771       2.4377500      0.35475000      0.25550000       343.29600       1.9164570    0.0085439682
       2568.0000       291.84371       98551.181       13660.960       4.3982500      0.55150000     -0.21575000       343.00800       1.9504950    0.0091026247
       2573.0000       291.85245       98549.314       13657.219       2.3265000      0.87675010     0.031750000       343.44900       1.9521626    0.0074469175
       2579.0000       291.90634       98543.189       13681.129       1.9935000      0.98575000      0.48425000       343.62900       1.9272057    0.0078458709
