MIRICO/SHELL project - Processed LDS file generated on
Tue Jul 18 14:33:04 2017
Time stamp for record start
05/11/2017  15:22: 6.0000
Nb of points in the record
         511
Beam position index
       3.0000000
Beam angle (degrees)
     -0.91000000
Open Path length (m)
       44.550000
****************** Temporal data record ************************
Elapsedtime_sec Temp_K Press_Pa Humidity_ppmv WindX_m/s WindY_m/s WindZ_m/s Speedofsound_m/s CH4vmr_ppmv CH4vmrerror_ppmv  
      0.00000000       292.70864       98561.325       13406.325      0.70925000       1.3862500    -0.080500010       344.56500       2.0262011     0.017064561
       5.0000131       292.75267       98557.668       13407.034       2.2232500      0.90775010     0.098500010       344.30000       1.9699708     0.023384404
       10.999981       292.82482       98559.732       13442.456       1.2210000       2.1807500     -0.26050000       344.40500       2.0362745     0.018261182
       15.999994       292.86400       98574.435       13493.801       1.3447500       1.4967500      0.17600000       344.97300       2.0057088     0.013283169
       21.000007       292.91747       98578.200       13532.137      0.80325000       2.7645000    -0.083250000       345.03100       1.9654495     0.031734526
       25.999980       293.02823       98580.081       13599.020      0.83525000       1.4625000      0.23025000       344.81800       1.9889671     0.014507458
       30.999993       293.08074       98575.742       13644.804       1.7812500       2.1495000     -0.14525000       343.56600       2.0026696     0.021040680
       36.000006       293.10845       98554.206       13676.917      0.75850000       1.9755000     -0.38250000       343.46300       2.0040296     0.019664993
       40.999979       293.11079       98552.085       13689.369       1.5132500       1.7292500     0.018000000       344.09600       2.0094467     0.014542971
       45.999992       293.03609       98558.263       13662.894       2.1192500       1.6520000      0.23825000       344.60400       2.0206639     0.028226675
       51.000005       293.04343       98559.922       13689.115       1.0340000       2.2280000     0.036500000       344.21200       2.0425877     0.020269055
       55.999978       293.05630       98578.239       13717.170       1.9542500       1.4910000     -0.36850000       344.27500       2.0061797     0.023005499
       60.999991       293.10717       98578.718       13760.019       2.4592500       1.5022500     -0.46600000       344.01700       2.0194216     0.021136209
       66.000004       293.25303       98554.153       13859.058       2.0192500      0.55425000      0.45950000       344.93200       2.0519442     0.017809720
       71.000017       293.33834       98552.054       13933.116       3.3227500      0.90175000     -0.26550000       344.04000       2.0164647     0.013933097
       75.999990       293.44108       98557.918       14019.064       1.2650000       2.4190000     -0.28850000       343.60800       1.9871808     0.015849482
       81.000003       293.47935       98559.690       14055.452       1.1980000       1.5175000      0.72575000       345.18300       2.0119230     0.015942601
       86.000016       293.45640       98578.217       14090.914       1.9022500      0.85625000      0.80825000       345.12500       2.0001431     0.029508948
       90.999989       293.45263       98578.587       14075.487       1.8595000       3.3362500     0.097750010       344.00800       2.0179381     0.019823177
       96.000002       293.43052       98554.151       13998.779       1.9015000       3.4915000     -0.11300000       344.79800       2.0226742     0.022066325
       102.00001       293.37653       98552.321       13892.291       1.1510000       1.8670000      0.46525000       344.84900       2.0028157     0.017551191
       106.99998       293.31543       98560.515       13749.261       1.4185000       3.4990000      0.59125000       344.80500       1.9815909     0.018647984
       112.00000       293.27573       98559.492       13656.465       1.9460000       3.5742500      0.65975000       344.80800       1.9830366     0.019039351
       117.00001       293.22402       98567.345       13572.128       2.7425000       1.3077500      0.34750000       344.60400       2.0132829     0.017479777
       121.99998       293.16429       98566.856       13473.025       2.6550000       3.0377500      0.19350000       343.76300       2.0222592     0.029481114
       127.00000       293.07096       98546.995       13335.142       2.3847500       2.7262500     -0.34775000       343.08800       2.0274763     0.015114525
       132.00001       293.09622       98547.813       13327.362       2.4112500       2.2407500      0.45625000       344.38300       2.0146152     0.015083851
       136.99998       293.16993       98567.182       13368.726       1.8517500       1.9330000    -0.026500000       344.30700       1.9879664     0.018952959
       141.99999       293.22221       98566.650       13407.987       1.2882500       1.5115000     -0.39025000       344.83500       1.9927894     0.013755680
       147.00001       293.39757       98562.023       13571.336       3.2240000      0.70175000     0.083000000       344.08800       2.0557502     0.017819439
       151.99998       293.45338       98559.842       13651.576       2.7915000       1.9480000     -0.32050000       343.44600       2.0814004     0.026077774
       156.99999       293.38921       98542.583       13649.093       2.7960000       2.1427500     -0.74025010       343.37700       2.0268521     0.028062912
       162.00001       293.40550       98542.332       13711.901       2.6242500       2.6165000     -0.22650000       343.76200       2.0327473     0.030591079
       166.99998       293.42904       98562.102       13812.185       4.0915000       2.1837500     -0.26550000       344.02200       1.9962037     0.015245739
       171.99999       293.46535       98562.576       13892.048       3.4180000       1.5165000     -0.12875000       345.20200       2.0001947     0.026752972
       177.00001       293.57419       98554.322       14027.844       3.7522500       2.2687500     -0.16050000       343.56300       2.0518072     0.026249469
       181.99998       293.55905       98556.081       14034.067       4.3705000       1.9777500     -0.81950000       342.93000       2.0505430     0.017292973
       186.99999       293.48262       98553.313       13966.876       1.5197500       1.8057500      0.26500000       344.84100       2.0408656     0.028830084
       193.00000       293.40477       98555.997       13894.868       1.7352500       3.9525000     -0.31000000       343.93800       2.0227578     0.018013585
       198.00001       293.23486       98573.802       13722.219       4.7737500       3.4057500     -0.72975000       343.46100       2.0568068     0.015753953
       202.99999       293.20018       98571.512       13680.571       2.4380000       1.8652500     -0.35150000       343.34400       2.0331850     0.014846669
       208.00000       293.23418       98552.881       13706.957       4.5680000       2.5745000     -0.15775000       343.35200       2.0406104     0.015401545
       213.00001       293.26123       98554.309       13704.241       3.3230000       3.2407500     -0.91700010       344.03100       2.0218660     0.015749022
       217.99998       293.35782       98558.300       13750.685       3.0767500       2.6295000     -0.22375000       343.59600       2.0843884     0.018173815
       223.00000       293.37034       98561.101       13728.999       2.2425000       2.4355000      0.10575000       344.22600       2.0482834     0.018013526
       228.00001       293.34761       98579.406       13662.030       3.1877500       3.0797500      0.36575000       344.34800       2.0618175     0.023430870
       232.99998       293.35768       98576.340       13635.952       2.7870000       1.3967500     -0.59650000       344.71400       2.0338147     0.014654849
       238.00000       293.36212       98552.543       13591.337       1.5402500      0.42550000       1.2247500       345.85800       2.0303262     0.015519232
       243.00001       293.33359       98552.880       13587.832       1.5555000       1.5872500      0.90650000       345.50400       2.0067369     0.016779831
       247.99998       293.33823       98561.248       13640.798       2.5037500       2.8147500      0.75475000       344.87100       2.0185106     0.014832818
       253.00000       293.25414       98558.371       13627.820       1.7177500       3.0767500    -0.095250000       344.83800       2.0159511     0.016899334
       258.00001       293.04875       98562.592       13589.471      0.72900000       1.5422500      0.10125000       345.96100       1.9986169     0.020057401
       262.99998       292.98508       98560.862       13579.188       2.4182500       2.2580000      0.60900000       344.55800       2.0062276     0.015098446
       267.99999       292.92963       98541.357       13552.667       4.0952500       2.9035000     -0.82475010       343.84800       1.9930479     0.016270309
       273.00001       292.93496       98544.632       13538.212       2.2540000       3.2382500     -0.47100000       344.73300       1.9947728     0.014853398
       277.99998       293.03265       98568.089       13539.181       2.4145000       3.7322500    -0.095500010       344.00500       1.9981766     0.014550946
       283.99999       293.11621       98562.489       13566.723       3.1087500       2.7242500     -0.53575000       343.09100       1.9975985     0.017259440
       289.00000       293.19444       98561.799       13596.433       1.7392500       1.9042500      0.41775000       344.22500       2.0485634     0.015587816
       294.00001       293.32993       98549.211       13663.669       2.3725000       3.3040000     -0.16450000       343.81700       2.0258020     0.017955439
       298.99999       293.41181       98542.736       13739.397       4.6550000       1.6705000      0.69600000       344.04100       2.0119655     0.015303950
       304.00000       293.46906       98541.178       13821.050       5.7402500       1.4825000      0.60250000       344.03500       2.0498302     0.017705611
       309.00001       293.51867       98551.410       13904.434       1.0657500       4.5807500     -0.77800010       343.21600       2.0199562     0.017914036
       313.99999       293.51421       98550.038       13966.557       2.3992500       3.9275000    -0.093000000       344.08300       2.0315745     0.015832262
       319.00000       293.47424       98542.980       14067.804       3.4262500       3.1902500      0.10500000       344.30000       2.0768867     0.016133449
       324.00001       293.30792       98558.386       13969.801       2.3747500       3.4660000     0.020000000       343.99800       2.0695901     0.017996551
       328.99999       293.19674       98561.775       13897.295       4.9872500       3.1140000       1.8137500       344.09300       1.9979391     0.014541903
       334.00000       293.02922       98565.460       13747.013       3.7442500       2.8572500      0.80700000       343.79300       1.9920459     0.013650495
       339.00001       292.92533       98567.984       13635.320       3.1597500       4.1325000      0.61350010       343.75200       2.0401209     0.015859580
       343.99998       292.87065       98565.593       13546.452       1.6325000       3.2252500      0.80975000       343.85800       2.0829243     0.016450697
       349.00000       292.89393       98546.653       13491.043       3.6300000       3.9892500     -0.30450000       343.32600       2.0486939     0.017762432
       354.00001       292.88553       98550.625       13442.925       2.1487500       3.4220000     0.094750000       344.02400       2.0064217     0.015304265
       358.99998       292.89431       98567.822       13394.909       3.2095000       4.0965000     -0.45275000       343.39500       2.0636314     0.018412784
       364.00000       292.88615       98557.616       13403.562       3.6137500       4.7360000     -0.54650000       343.69000       2.0513518     0.014930992
       369.00001       292.93230       98559.389       13448.917       3.7490000       2.7842500      0.41775000       343.95200       2.0180881     0.015056130
       374.99998       293.07930       98559.133       13597.644       3.4682500       2.8015000    -0.093000000       343.98100       2.0401905     0.014559187
       379.99999       293.16854       98558.520       13693.522       3.2230000       2.3705000      0.73750000       343.92200       2.0434710     0.013780860
       385.00000       293.29014       98580.009       13796.829       1.8927500       2.2077500     0.087000000       344.13200       2.0958112     0.018136226
       390.00002       293.37708       98579.893       13903.157       3.2705000       2.4665000     -0.57050000       344.14700       2.0638389     0.015361769
       394.99999       293.40855       98545.948       13976.115       2.0862500       3.2600000      0.26800000       343.88000       2.0648997     0.015483956
       400.00000       293.45843       98540.916       14082.273       4.5087500       2.0557500      0.34300000       343.76700       2.0830854     0.016360772
       405.00002       293.52342       98547.117       14246.161       3.4457500       3.4735000     -0.10550000       343.31900       2.0559789     0.018009755
       409.99999       293.56230       98548.546       14363.511       3.7192500       2.4955000    -0.019000000       343.47600       2.0731809     0.015762191
       415.00000       293.60415       98573.791       14518.500       2.7427500       2.5545000     -0.21400000       343.64100       2.0663936     0.016138919
       420.00002       293.61204       98581.017       14577.145       1.5310000       4.0922500     -0.54850000       343.62600       2.0159023     0.015682570
       424.99999       293.59439       98560.112       14595.606       2.3797500       3.7795000     -0.96300010       343.80600       2.0169707     0.014953422
       430.00000       293.55220       98557.622       14527.212       3.5875000       3.0917500     0.078750010       343.73300       2.0656811     0.016211600
       435.00001       293.47293       98568.186       14319.650       3.3550000       3.7370000     -0.51225000       343.43800       2.0416777     0.015848947
       439.99999       293.39159       98565.952       14152.300       4.0290000       2.7300000     -0.39125000       343.79700       2.0613166     0.016209064
       445.00000       293.26655       98559.487       13905.693       3.1062500       3.1265000     -0.18150000       343.65100       2.0302060     0.016867441
       450.00001       293.17749       98560.570       13729.463       3.1865000       2.1207500      0.41875000       343.97900       2.0732669     0.016815889
       454.99999       293.08420       98553.054       13597.948       2.3855000       2.3945000     -0.40725000       344.21200       2.0484916     0.014998985
       460.00000       293.02610       98552.618       13480.376       2.8932500       2.7640000     -0.29175000       343.84800       2.0593994     0.017289339
       466.00001       293.01747       98580.372       13374.457       2.8900000       1.9350000      -1.5492500       343.73300       2.0608565     0.017627533
       470.99998       292.98760       98578.870       13301.580       2.8127500     -0.66775010      0.39825000       344.30400       2.0150499     0.016963373
       475.99999       292.96216       98549.114       13235.344       4.1825000      0.31400000      0.32000000       344.46300       2.0543812     0.017400296
       481.00001       292.94225       98546.906       13205.480       3.9315000     -0.80550000    -0.064750000       344.41300       2.0504816     0.022913393
       485.99998       292.93202       98549.738       13229.348       3.0865000       1.1020000     -0.19525000       344.33800       2.0375946     0.015773857
       490.99999       292.88812       98547.970       13217.523       5.1110000      0.33375000     -0.16675000       343.83500       2.0115692     0.015311859
       496.00001       292.84963       98565.713       13221.526       3.7222500      0.52625000    0.0050000000       344.27800       2.0134859     0.014672877
       500.99998       292.78175       98569.581       13207.174       5.6227500      0.20850000     -0.30875000       344.26600       2.0049565     0.014932636
       505.99999       292.64566       98547.803       13142.073       5.8502500      0.28600000      0.34450000       343.96300       2.0414236     0.016523080
       511.00000       292.55890       98546.902       13124.897       1.6142500       1.5787500      0.53500000       344.21500       2.0365828     0.015699781
       516.00002       292.45860       98566.845       13111.035       3.0447500       1.7782500    -0.015750000       343.68100       2.0884638     0.017583548
       520.99999       292.42017       98567.325       13141.559       2.5677500       1.2590000      0.18400000       343.90900       2.0706488     0.016827644
       526.00000       292.45519       98559.901       13246.963       3.2905000       1.4182500      0.35125000       344.02000       2.0716183     0.016935071
       531.00002       292.44506       98560.900       13290.756       4.5275000       2.6275000      -1.3017500       343.29900       2.0384805     0.014141318
       535.99999       292.44441       98553.962       13330.629       4.1915000      0.84450010      0.42950000       343.74200       2.0532748     0.014798478
       541.00000       292.45483       98553.531       13374.387       4.3560000       2.2162500    -0.027500000       343.60300       2.0638069     0.014610998
       546.00002       292.45651       98572.813       13383.192       3.2172500      0.60950010     -0.24825000       343.56100       2.0248580     0.012790236
       551.99998       292.44467       98572.940       13409.587       4.2745000      0.71050010      0.36725000       343.82400       2.0571471     0.016137529
       557.00000       292.46861       98553.278       13472.923       4.1227500      0.26075000   -0.0050000000       343.70700       2.0151479     0.013840654
       562.00001       292.44625       98553.862       13486.251       4.1205000       1.2782500     -0.46075000       343.73600       2.0073105     0.015605686
       566.99998       292.37036       98561.910       13474.048       3.2462500      0.71425000    -0.066750000       343.89300       2.0483985     0.015492573
       572.00000       292.32088       98559.346       13443.160       3.0640000       1.7130000      0.27375000       344.07700       2.0184890     0.012929210
       577.00001       292.27184       98562.435       13386.751       3.9117500      0.26025000      0.25125000       343.94700       2.0366601     0.014017586
       581.99998       292.22170       98561.542       13329.369       3.7290000       1.8710000     -0.93050000       343.42000       2.0364251     0.012983693
       586.99999       292.17063       98542.850       13247.696       3.3767500       1.7595000     0.039750000       343.62900       2.0082995     0.014815652
       592.00001       292.12050       98542.559       13175.894       3.3185000       1.2987500      0.10575000       343.76200       2.0400146     0.015075560
       596.99998       292.05809       98557.561       13090.593       2.6185000      0.89800010     -0.17625000       344.02900       2.0367673     0.014971334
       601.99999       292.02420       98564.532       13037.955       4.1970000       2.4287500     0.091250000       343.67500       2.0254288     0.013800958
       607.00001       291.99000       98574.420       12973.627       3.6297500       1.7160000     -0.10375000       343.67800       2.0578539     0.015360502
       611.99998       291.99277       98579.170       12972.452       4.7440000       1.0925000     -0.55725000       343.75700       2.0026668     0.012125293
       616.99999       292.04109       98583.569       13031.387       4.8755000    -0.029750000      0.43225000       343.65300       2.0335020     0.013825296
       622.00001       292.06098       98579.914       13066.448       5.2630000       2.2895000    -0.094000000       343.42800       1.9542600     0.012063840
       626.99998       292.07677       98567.697       13116.757       4.6972500       1.5552500     -0.36325000       342.82300       2.0404293     0.012972263
       631.99999       292.12332       98561.712       13189.911       5.1880000       2.4530000    -0.015000000       343.12000       2.0239988     0.012486632
       637.00000       292.18539       98546.959       13273.752       4.4860000       1.1897500      0.57375000       343.50500       2.0057858     0.012189452
       643.00001       292.23337       98548.685       13366.994       3.4710000      0.64525000      0.42375000       343.38700       2.0218315     0.012109839
       647.99999       292.32452       98567.657       13506.415       4.0205000       1.4450000     -0.30875000       343.11100       2.0129106     0.011638867
       653.00000       292.30948       98566.103       13535.653       4.1435000       1.6425000      0.10350000       343.40200       2.0151721     0.012253084
       658.00001       292.21803       98559.417       13510.685       3.2347500      0.58225000      0.60300000       343.41200       1.9989847     0.012444407
       662.99998       292.16015       98562.343       13470.241       3.0495000       1.3012500    -0.055500000       343.62300       2.0210792     0.012651408
       668.00000       292.05835       98559.957       13362.677       1.9450000      0.69275000      0.60875000       343.65400       2.0363412     0.012860016
       673.00001       291.99680       98557.855       13298.019       3.1122500       1.9592500    -0.034000000       343.53200       2.0242773     0.013078526
       677.99998       291.95985       98567.423       13237.564       2.9090000       2.2297500     -0.34900000       343.72000       2.0594810     0.015291531
       683.00000       291.90939       98565.948       13157.777       2.2040000      0.67825000      0.67200010       343.93200       2.0156161     0.013687500
       688.00001       291.84118       98546.500       13059.413       2.4220000       1.0265000      0.30325000       343.84200       2.0255296     0.013498732
       692.99998       291.82851       98548.638       13010.833       2.9522500       1.6697500     -0.32200000       343.22100       2.0092668     0.013147688
       698.00000       291.84322       98567.649       12958.438       3.8835000       3.1332500     -0.31250000       343.16900       2.0051811     0.012334177
       703.00001       291.85189       98566.135       12941.775       3.5202500       2.1552500      -1.6072500       343.34500       2.0288843     0.013848793
       707.99998       291.89368       98559.305       12979.467       2.4972500       1.4780000      0.44000000       343.86600       2.0036332     0.013088473
       713.00000       291.92360       98562.142       12998.730       1.7070000      0.88950000      0.58925000       343.73500       2.0205963     0.011773798
       718.00001       291.95428       98560.296       13026.747       2.1492500       1.4402500     0.064250000       343.20900       2.0565339     0.014281057
       722.99998       291.95509       98558.130       13036.277       1.2110000       1.8202500     -0.41775000       343.86700       1.9862745     0.011558209
       727.99999       291.93886       98567.654       13032.065       1.6040000       1.5910000     -0.15850000       343.92900       2.0023068     0.012843354
       734.00000       291.97484       98550.222       13087.929       3.8397500       2.7600000     -0.98500010       343.13300       2.0346654     0.013239097
       739.00001       291.99332       98546.613       13138.726       3.1055000       3.5252500    -0.039250000       343.14900       2.0297320     0.012444702
       743.99999       292.05480       98568.293       13253.814       1.7750000       2.9747500     -0.20975000       343.30100       1.9744829     0.010951391
       749.00000       292.10559       98569.082       13339.998       3.3845000       3.0340000     0.071250010       343.32900       2.0152688     0.013301875
       754.00001       292.14408       98562.481       13411.547       3.9115000       3.2617500     -0.80800000       343.24900       2.0024860     0.011871908
       758.99999       292.14941       98548.575       13468.801       3.1070000       1.1392500     -0.26125000       343.39600       1.9785059     0.011219193
       764.00000       292.16962       98551.827       13492.253       1.3435000       1.0047500      0.86175010       344.05800       2.0049829     0.012016209
       769.00001       292.20488       98548.380       13498.797       4.3272500       2.9585000      0.25450000       343.90900       2.0346444     0.013378468
       773.99999       292.20018       98562.181       13460.487       1.9592500       1.9345000     -0.12250000       343.67400       1.9877012     0.012341059
       779.00000       292.20029       98569.115       13429.865       2.2560000      0.13400000      0.52875000       344.08600       1.9989368     0.013228143
       784.00001       292.20031       98551.809       13396.744       3.8167500       1.8520000      -1.1397500       343.10400       2.0331198     0.012228847
       788.99999       292.20042       98547.237       13363.278       4.2022500       1.9200000      0.10000000       343.26700       2.0137417     0.012824290
       794.00000       292.20054       98548.790       13328.967       2.1930000      0.63400000      0.40900000       343.65900       1.9908000     0.012408224
       799.00001       292.20699       98562.185       13300.085       2.2390000       2.6087500     0.088000010       343.35900       2.0138726     0.013465955
       803.99998       292.18548       98559.764       13242.721       2.3547500       2.6927500     -0.21050000       343.28200       2.0327910     0.012740276
       809.00000       292.13792       98554.074       13152.764       2.7920000       3.0977500     -0.42075000       343.54000       2.0306566     0.013994714
       814.00001       292.19154       98561.544       13190.053       3.6752500       2.9920000     0.099500010       343.42500       1.9972469     0.012769647
       818.99998       292.20222       98560.648       13195.291       2.5085000       2.1137500    0.0090000010       343.38600       2.0088207     0.013075728
       824.99999       292.23305       98566.226       13256.585       2.5232500       3.7800000     -0.32125000       343.14800       1.9954221     0.012640847
       830.00000       292.26162       98567.669       13302.906       2.3757500       1.5260000     -0.38575000       343.60300       1.9934437     0.012591747
       835.00002       292.24391       98550.456       13299.542       2.6140000       2.4690000     0.025250000       343.46700       2.0046469     0.011444268
       839.99999       292.24508       98547.060       13322.097       2.5705000       3.2290000     -0.12425000       343.41200       2.0234943     0.011585773
       845.00000       292.26093       98561.391       13380.088       1.5667500       3.2935000     -0.58400010       343.31400       1.9841978     0.014170468
       850.00002       292.30231       98562.012       13432.314       1.2717500       1.2465000      0.59125000       343.91000       2.0178660     0.013088331
       854.99999       292.39580       98552.407       13517.264       1.6707500      0.91950010      0.23050000       343.80000       2.0046300     0.013450003
       860.00000       292.41325       98554.711       13535.741       2.2995000       1.3570000     -0.18775000       343.43500       1.9645831     0.012096941
       865.00002       292.41152       98561.379       13503.766       2.2830000       2.5647500     -0.76425000       343.23000       1.9884547     0.012084531
       869.99999       292.40909       98560.465       13498.095       2.1810000      0.80825000     0.084500010       343.55800       2.0076391     0.012541200
       875.00000       292.33359       98566.195       13457.968       2.6482500      0.92000000      0.14725000       343.74700       2.0184041     0.014410412
       880.00001       292.28536       98567.677       13423.391       2.3427500       1.3622500     -0.13900000       344.05300       1.9810681     0.012441835
       884.99999       292.26672       98550.231       13428.602       3.4005000       2.9225000     0.093750010       343.78700       1.9791813     0.016180342
       890.00000       292.24677       98546.925       13408.199       3.1122500     0.016500000     -0.17200000       343.93900       2.0550565     0.012605680
       895.00001       292.22400       98561.303       13351.848       3.6547500       2.7092500     -0.21800000       343.78100       1.9939072     0.012840832
       899.99999       292.19367       98561.912       13305.437       2.4000000       1.8895000      0.53150000       343.82300       2.0217370     0.012833074
       905.00000       292.17951       98552.295       13263.216       2.5845000       1.1970000    -0.079750000       343.90300       1.9790501     0.014717891
       910.00001       292.14830       98554.471       13219.143       2.2545000       2.8027500     -0.44450000       343.96600       2.0220950     0.011879230
       915.99998       292.07976       98562.249       13158.183       4.4015000       1.1635000    -0.046000000       343.50700       2.0256189     0.012880749
       920.99999       292.03039       98559.910       13113.815       3.0502500      0.90325000    -0.071000000       343.70900       1.9812425     0.012054577
       926.00001       291.95439       98559.199       13038.750       3.4100000       1.1590000      0.49375000       343.65700       2.0003267     0.011832977
       930.99998       291.93197       98561.817       13035.187       1.8950000       1.6812500      0.53075000       343.84900       1.9769588     0.011619476
       935.99999       291.95582       98555.958       13087.877       3.0952500       2.7865000      0.14125000       343.62200       2.0065032     0.011506251
       941.00001       291.94593       98552.668       13112.179       4.6142500       2.1047500     -0.89800010       343.35800       1.9914419     0.012347572
       945.99998       291.94439       98562.444       13168.579       3.4905000       1.1572500     -0.70175000       343.64200       1.9934469     0.012282765
       950.99999       291.95485       98562.048       13218.944       3.0620000       1.1710000     -0.47125000       343.59800       1.9953161     0.013089919
       956.00000       291.94417       98543.648       13250.809       2.7592500       1.9440000     -0.25875000       343.93200       1.9858394     0.011697173
       960.99998       291.94798       98542.417       13279.020       1.8085000       2.1975000      0.37325000       343.82500       1.9956136     0.012443591
       965.99999       291.95589       98558.630       13309.015       4.8027500       3.0237500     -0.15100000       343.04400       2.0110114     0.012810477
       971.00000       292.01283       98556.125       13359.116       3.5765000       2.0060000      0.75825010       343.73000       2.0256328     0.011696466
       976.00002       292.11165       98543.382       13408.909       4.0550000       1.1430000    -0.073250000       343.33900       2.0624420     0.013137707
       980.99999       292.17181       98545.116       13449.202       2.4072500       1.1370000      0.74075000       343.61400       1.9823520     0.012031658
       986.00000       292.29665       98544.673       13529.778       3.9657500       1.3112500    -0.093750010       343.03300       2.0047329     0.011393606
       991.00002       292.33179       98543.868       13562.953       2.3895000      0.72550000      0.35925000       343.63400       1.9803741     0.011771446
       995.99999       292.28731       98557.559       13565.223       4.7715000       2.4870000      0.19350000       343.20400       1.9812305     0.013119810
       1001.0000       292.24009       98564.451       13541.532       4.1347500       2.4675000      0.12950000       343.46500       2.0058924     0.012915443
       1007.0000       292.09419       98558.957       13448.064       1.6772500       1.9390000      0.26000000       343.57500       2.0178081     0.011687928
       1012.0000       292.07350       98560.212       13432.177       2.8172500       1.9825000      0.15875000       343.30100       2.0175153     0.012177056
       1017.0000       292.08508       98575.814       13421.877       3.2275000       2.5022500     -0.38625000       343.19200       1.9774598     0.012127640
       1022.0000       292.09710       98570.570       13412.797       2.7620000       1.0700000      0.58425000       343.76600       1.9872183     0.011223958
       1027.0000       292.18651       98543.846       13458.407       2.3820000      0.46625000     -0.38150000       343.82200       2.0131052     0.012272196
       1032.0000       292.23025       98541.996       13464.417       2.9575000     0.031500000      0.59075000       343.97700       2.3211197     0.012649306
       1037.0000       292.24211       98545.371       13425.765       2.6352500      0.68700000      0.17650000       343.62300       2.5026984     0.011748348
       1042.0000       292.26230       98543.600       13423.415       3.3850000      0.44550000      0.21400000       343.43600       3.0822830     0.012207069
       1047.0000       292.27693       98555.949       13430.744       3.6687500      0.14775000       1.0455000       343.68600       2.8783433     0.012375565
       1052.0000       292.32289       98558.488       13456.967       5.1405000     -0.14050000      0.16175000       343.42400       3.9091619     0.014510499
       1057.0000       292.36173       98544.883       13489.851       3.0382500    -0.046000000     -0.11475000       343.54600       4.1604244     0.013198268
       1062.0000       292.43354       98542.854       13549.129       4.1325000      0.45475000      0.10625000       343.27600       3.8823537     0.012662826
       1067.0000       292.59331       98551.381       13651.152       2.6085000      0.84025000      0.64075010       343.77700       3.3077191     0.013001653
       1072.0000       292.64441       98551.093       13724.788       2.6380000    -0.047750000     -0.19850000       343.61700       2.7768445     0.012019900
       1077.0000       292.65610       98542.765       13824.043       3.9942500      0.10900000     -0.32425000       343.00300       2.8303381     0.012667759
       1082.0000       292.66381       98545.678       13867.708       2.9535000     -0.70650010    -0.010500000       343.65100       2.9199083     0.012145937
       1087.0000       292.60039       98558.692       13877.275       2.8977500      0.19950000     -0.70400010       343.89500       3.3057903     0.013950198
       1092.0000       292.58653       98555.259       13875.609       3.9242500     -0.89450000   -0.0085000000       343.77700       3.2538348     0.012514680
       1098.0000       292.59143       98543.611       13828.055       4.5967500     -0.46825000     -0.52525000       343.33800       2.9089885     0.011562697
       1103.0000       292.61035       98546.337       13805.494       4.1797500      0.31500000     -0.28950000       343.56100       2.5044488     0.012572709
       1108.0000       292.63720       98544.654       13772.320       4.3552500      0.89550010      0.14450000       343.08200       2.5396719     0.011118879
       1113.0000       292.67571       98543.442       13756.949       4.0615000     -0.60450010      0.10400000       343.79800       2.3121503     0.012545109
       1118.0000       292.73916       98557.549       13742.018       2.7807500      0.21300000      0.40800000       344.01700       2.2184611     0.011445082
       1123.0000       292.78963       98559.080       13753.004       2.5410000       1.0247500      0.42775000       344.21200       3.5780182     0.012881850
       1128.0000       292.83062       98542.332       13761.589       2.5877500     -0.35450000     -0.26875000       343.76600       4.8705636     0.014681677
       1133.0000       292.89966       98544.654       13832.833       2.6052500       2.1445000     0.011000000       343.76500       3.8922447     0.012982029
       1138.0000       293.00596       98562.653       13987.386       3.5640000       1.9092500      0.31475000       343.47900       2.6200602     0.012055356
       1143.0000       293.03898       98562.227       14027.237       3.9427500      0.96050010     -0.38125000       343.72700       2.1943584     0.011932571
       1148.0000       293.05997       98554.517       14062.220       3.2045000      0.30200000      0.25450000       343.49000       2.0822481     0.012137956
       1153.0000       293.06252       98556.387       14067.846       2.4442500      0.14750000      0.10625000       343.39100       2.0597464     0.011443114
       1158.0000       292.99732       98557.781       13981.358       2.1340000       1.2712500    -0.097000000       343.45500       1.9937848     0.013308538
       1163.0000       292.98634       98551.084       13955.760       2.1712500       2.1077500    0.0032500000       343.69600       1.9897236     0.012102771
       1168.0000       292.99124       98543.702       13960.237       2.4797500       2.6582500    -0.087000000       343.98500       1.9676612     0.012585874
       1173.0000       293.01022       98546.561       13950.953       3.7565000       2.3530000     0.066000000       343.34300       2.0024957     0.017408984
       1178.0000       293.05574       98544.795       13938.299       3.1597500       1.9720000     -0.30625000       343.00500       2.0053958     0.011768325
       1184.0000       293.02547       98549.504       13881.132       2.4490000      0.55525000    -0.011750000       342.98200       1.9879085     0.012603653
       1189.0000       293.04432       98556.708       13863.176       1.7670000      0.92675010      0.29975000       344.20700       2.0001374     0.013512321
       1194.0000       293.07508       98553.870       13835.743       3.2515000    0.0047500000     -0.46850000       343.66800       2.0106356     0.011459596
       1199.0000       293.09365       98553.506       13826.580       1.9042500       1.2587500     -0.28900000       343.75600       1.9894984     0.013851741
       1204.0000       293.12455       98556.835       13839.552       1.1937500       1.0707500      0.24550000       344.31500       1.9669705     0.018597757
       1209.0000       293.23298       98573.548       13915.261       1.8015000       1.9790000     -0.22275000       343.64000       1.9750258     0.013536772
       1214.0000       293.18605       98571.859       13891.792       2.3327500       2.0932500     0.097500000       344.60200       1.9763245     0.019273047
       1219.0000       293.05051       98559.015       13833.415       3.2472500       2.1365000      0.20300000       343.71900       1.9790658     0.012793733
       1224.0000       292.91582       98566.778       13741.664       4.1307500       1.7097500    -0.037500000       343.71800       1.9773626     0.014718898
       1229.0000       292.86839       98562.252       13714.817       2.1037500      0.56900000      0.12900000       345.47100       2.1577598     0.012038940
       1234.0000       292.94532       98544.662       13766.754       1.7887500     -0.39075000      0.38475000       345.26400       2.5264340     0.013068439
       1239.0000       292.99371       98543.261       13806.219       1.7050000      0.31125000      0.42500000       345.37200       2.9968721     0.012603058
       1244.0000       293.05438       98545.553       13858.938       2.4355000      0.53175000      0.12975000       344.47600       2.4627273     0.015139796
       1249.0000       293.16146       98543.723       13949.045       3.5110000     -0.37125000    -0.046750000       344.21200       2.4448228     0.011467864
       1254.0000       293.19850       98543.101       13995.038       3.1157500      0.14650000     -0.45900000       344.06000       2.3128310     0.012640926
       1259.0000       293.20584       98556.580       14027.817       2.6647500      0.37025000     0.043000000       344.10600       2.1637178     0.013407316
       1264.0000       293.18512       98556.815       14026.972       3.6147500       1.2460000     -0.99575010       343.57700       2.4105037     0.012385421
       1269.0000       293.19378       98554.675       14054.603       2.5992500      0.47925000      0.18675000       344.10200       3.1906092     0.012280045
       1275.0000       293.23424       98562.106       14112.093       3.3590000       1.5930000      0.42275000       344.12300       2.6816233     0.012411375
       1280.0000       293.25400       98562.545       14146.591       3.0100000       1.3825000      0.26325000       343.97400       2.2012660     0.011528653
       1285.0000       293.30426       98544.561       14232.584       2.1417500       2.1275000      0.22225000       344.22600       2.1204694     0.012139953
       1290.0000       293.31180       98542.168       14242.826       3.4040000       1.2680000     -0.92450000       343.45400       2.0006260     0.011257554
       1295.0000       293.28137       98558.473       14189.394       4.3465000       1.7327500   -0.0017500000       344.09700       2.2278977     0.011951546
       1300.0000       293.24996       98556.920       14141.056       3.5037500      0.59950000     -0.22950000       344.29900       2.0542548     0.011924138
       1305.0000       293.17646       98543.466       14014.901       4.0727500      0.84525000     -0.23200000       343.75200       2.0480808     0.012678159
       1310.0000       293.13744       98544.865       13957.672       4.5632500       1.2187500     -0.49750000       343.95000       2.1623539     0.011461852
       1315.0000       293.13786       98549.454       13980.010       2.3785000      0.12700000     -0.42800000       344.01400       2.6571430     0.011876143
       1320.0000       293.09668       98544.488       13934.413       3.9037500     0.085000000     -0.57625000       343.69600       2.6019725     0.011655510
       1325.0000       293.01730       98541.278       13841.012       4.1710000      0.92325000     -0.31125000       343.38800       3.2131535     0.012702165
       1330.0000       292.98878       98546.235       13813.426       3.5020000      0.42000000      0.31825000       344.05700       3.8170274     0.013028683
       1335.0000       292.95262       98546.113       13758.228       3.7497500      0.17175000     -0.41575000       343.56700       4.8682376     0.013453357
       1340.0000       292.93542       98543.389       13748.527       3.3047500      0.27525000      0.14550000       343.49100       3.3520308     0.013216987
       1345.0000       292.97570       98555.087       13833.801       3.6682500     -0.49200000      0.19675000       344.25100       2.5787138     0.011764732
       1350.0000       293.00591       98558.510       13896.103       2.9325000      0.40125000   -0.0090000010       343.91400       2.1284736     0.011300032
       1355.0000       293.02058       98538.913       13958.912       2.2555000     -0.38525000    -0.019500000       344.47900       2.0777338     0.011732014
       1360.0000       293.05199       98536.611       14015.315       2.7285000     -0.16175000     0.081000000       344.12500       2.0243718     0.012500069
       1366.0000       293.13357       98555.648       14091.449       2.7082500     -0.42100000     -0.24725000       344.27800       2.5036968     0.011257910
       1371.0000       293.16936       98557.457       14151.430       2.9622500     -0.37050000    -0.061250000       344.70400       2.7222818     0.011903532
       1376.0000       293.20803       98553.536       14210.798       3.4622500      0.53025000      0.50225000       344.56500       2.8711826     0.012751591
       1381.0000       293.21073       98556.539       14250.355       4.5795000    -0.056250000       1.3027500       343.56800       2.6454052     0.012408754
       1386.0000       293.16293       98559.794       14284.989       5.8565000      0.53800000      0.20600000       343.03700       2.4141296     0.012633180
       1391.0000       293.14284       98554.065       14310.503       4.4092500      0.15925000      0.90700010       344.34300       2.9872790     0.013272405
       1396.0000       293.13074       98543.273       14326.988       4.4775000     0.039750000     -0.20975000       343.32700       2.8844000     0.014825343
       1401.0000       293.08652       98545.091       14314.546       4.4872500      0.83150010     -0.22300000       343.23200       2.6941942     0.012005177
       1406.0000       293.03550       98548.475       14287.994       3.5582500      0.32150000      0.28775000       344.24800       2.7850060     0.012030134
       1411.0000       292.98168       98543.511       14250.871       4.3867500     0.084500010     0.034750000       343.24900       2.2055687     0.013163719
       1416.0000       292.88459       98544.962       14175.761       3.3095000     -0.19025000     -0.15075000       343.69600       2.2864617     0.012246061
       1421.0000       292.81875       98547.215       14113.227       3.1422500      -1.6112500      0.20550000       343.01600       2.2024416     0.012313713
       1426.0000       292.78101       98533.933       14059.572       2.7915000      -1.2302500      0.10550000       343.60100       2.1405900     0.011489933
       1431.0000       292.73085       98531.892       13992.182       3.1212500      -1.1935000     -0.33050000       343.50700       2.1404782     0.011587963
       1436.0000       292.65460       98548.860       13881.040       3.8907500      -1.6077500     -0.17625000       343.52700       2.0479217     0.013158982
       1441.0000       292.63225       98553.836       13838.870       3.6595000      -2.1462500      -1.2300000       343.15900       2.0564138     0.011955679
       1446.0000       292.65658       98547.771       13827.600       3.4825000      -2.1510000      0.22525000       343.18400       2.0354474     0.012871236
       1451.0000       292.64665       98550.518       13819.850       3.9572500      -2.3400000     -0.12800000       343.37400       1.9790605     0.012081817
       1457.0000       292.64558       98561.941       13854.212       3.4137500     -0.30475000      0.24100000       343.30800       1.9773690     0.012912421
       1462.0000       292.65524       98560.993       13896.902       2.7682500      0.92025010    -0.031500000       343.54700       2.0281542     0.012486045
       1467.0000       292.65352       98554.357       13963.624       2.2942500      0.20800000      0.18750000       343.32700       2.5201992     0.012732962
       1472.0000       292.64328       98555.988       13989.926       2.7727500    -0.099250000     0.024250000       343.81000       2.5601309     0.012661981
       1477.0000       292.64639       98558.847       14015.759       1.8797500     -0.22575000     -0.20450000       343.75900       2.5149718     0.013522142
       1482.0000       292.65625       98552.621       14054.708       2.2147500      -1.2607500      0.10425000       343.73000       2.5575848     0.012764946
       1487.0000       292.65350       98543.436       14074.105       2.5490000     -0.87725000    -0.074250010       343.62000       2.5722552     0.013150668
       1492.0000       292.64303       98545.755       14085.856       2.2287500     -0.14975000      0.28925000       344.19000       2.4653128     0.013682934
       1497.0000       292.65662       98547.490       14127.513       2.9832500     -0.17825000     -0.19850000       343.69200       2.5615824     0.012718323
       1502.0000       292.65052       98542.507       14141.262       2.6377500      0.24075000      0.26250000       344.50900       2.5536685     0.014536702
       1507.0000       292.60029       98543.242       14107.002       3.9122500     -0.70550000     -0.14525000       343.76600       2.5014561     0.012353311
       1512.0000       292.58649       98548.161       14098.106       4.2330000       2.0667500      0.33575000       343.78500       2.8314037     0.013312394
       1517.0000       292.61144       98544.708       14123.502       2.9827500      0.69725000      0.54225000       343.75100       2.8091773     0.012218082
       1522.0000       292.59474       98543.035       14099.543       3.6040000      0.64900000     -0.36575000       343.76100       3.1712215     0.013957179
       1527.0000       292.56926       98555.938       14055.942       2.0467500     -0.18625000      0.43800000       344.55000       2.9650882     0.013328338
       1532.0000       292.53306       98558.475       13995.420       3.1817500       1.1647500      0.28375000       343.70000       3.1049668     0.012856128
       1537.0000       292.45731       98544.692       13888.969       2.7590000      0.45700000      0.44900000       344.49400       3.2160838     0.012378138
       1542.0000       292.42318       98542.524       13822.899       4.3810000      0.64400010    -0.048000000       343.94800       3.5563410     0.014304815
       1548.0000       292.38769       98551.505       13730.737       4.9842500      0.50875000  -0.00050000000       343.51800       3.0266614     0.012290309
       1553.0000       292.39518       98550.735       13713.155       3.6747500    -0.063250010      0.34600000       343.75700       2.9435187     0.014152094
       1558.0000       292.44624       98543.064       13743.937       3.6580000     0.057250000     -0.47725000       343.81700       3.0992149     0.013059393
       1563.0000       292.46608       98546.616       13757.054       2.7600000       1.3565000     0.097000000       344.25600       2.9589492     0.012855458
       1568.0000       292.51257       98553.505       13810.424       3.6370000       1.0230000      0.24975000       343.66800       3.4828938     0.012940051
       1573.0000       292.50479       98558.396       13816.555       4.5310000       1.5527500      -1.5202500       343.59700       3.4021386     0.013848361
       1578.0000       292.45414       98571.013       13790.256       2.6342500       2.0892500      0.59550010       343.97400       2.3921213     0.013427392
       1583.0000       292.43412       98574.446       13797.549       3.3885000      0.88625000      0.50400000       344.25400       2.0781827     0.012806297
       1588.0000       292.39710       98574.879       13804.967       3.3515000       1.9092500     -0.23025000       344.27600       2.0106479     0.012706349
       1593.0000       292.38574       98565.587       13815.663       3.5432500       2.6005000     -0.62550000       344.08500       2.0248645     0.012523308
       1598.0000       292.40870       98542.699       13867.897       4.7510000       1.8832500     -0.76050000       343.22500       2.0215967     0.012791702
       1603.0000       292.39007       98542.053       13837.872       5.1520000       1.3580000     -0.45775000       343.53900       2.0422820     0.012691386
       1608.0000       292.35508       98546.039       13759.864       5.0337500       1.3075000     0.058750000       343.09300       2.1433601     0.012695907
       1613.0000       292.33508       98541.090       13710.949       4.2110000       1.4030000     -0.15250000       343.25000       2.1370777     0.012653889
       1618.0000       292.30587       98544.228       13631.231       3.2255000      0.95150010      0.51550000       344.01100       2.0262239     0.012567616
       1623.0000       292.27573       98549.357       13569.110       2.9202500       1.0935000      0.35700000       343.19200       2.7061041     0.013067203
       1628.0000       292.24431       98544.795       13520.635       3.1132500     -0.32200000     -0.18850000       343.70900       2.8605009     0.013948165
       1633.0000       292.24303       98543.571       13492.064       4.0045000       1.4692500      0.23750000       343.48700       2.3338921     0.012388548
       1639.0000       292.24387       98557.873       13450.308       3.8490000      0.79925010     0.025750000       343.48400       2.5238504     0.014982295
       1644.0000       292.25475       98549.303       13447.011       5.5670000       2.4835000     -0.45725000       343.26000       2.3154597     0.012696750
       1649.0000       292.29311       98544.074       13481.168       4.1105000       1.6597500      0.14125000       343.50600       2.0671640     0.012890065
       1654.0000       292.34381       98541.290       13539.871       3.9405000       1.3695000       1.2515000       344.08700       2.0869399     0.013458744
       1659.0000       292.40498       98546.092       13624.986       2.7327500       1.3660000      0.12675000       344.07500       2.0076806     0.012016441
       1664.0000       292.42407       98544.996       13677.786       4.2285000       1.4197500      0.24100000       344.08900       2.0664603     0.012106605
       1669.0000       292.45600       98539.270       13755.528       5.8135000       2.7007500     -0.28400000       343.37500       2.0333283     0.012137616
       1674.0000       292.47498       98543.266       13830.819       3.3172500       3.1705000      0.48325000       343.88100       2.0514225     0.013070251
       1679.0000       292.45651       98545.305       13855.509       3.6970000       1.0927500     -0.96150000       343.86400       2.0178325     0.012662612
       1684.0000       292.46997       98545.807       13901.848       4.7180000       2.8912500     -0.11500000       343.40500       2.0108848     0.012605385
       1689.0000       292.42528       98549.638       13886.382       1.7300000     -0.24975000    -0.026250000       343.70200       2.0522998     0.012765848
       1694.0000       292.33143       98554.705       13816.274       3.7880000       2.1265000       1.6600000       343.40000       2.0752689     0.013421824
       1699.0000       292.14057       98562.311       13650.061       3.1777500      0.80825000       1.3380000       343.95500       2.0579650     0.014123049
       1704.0000       292.06295       98559.939       13565.774       3.8305000       1.7102500      0.81950000       343.70500       2.0201379     0.012111592
       1709.0000       291.97660       98554.518       13465.383       2.8955000       1.5435000       1.2802500       344.02500       2.0189866     0.012101745
       1714.0000       292.04515       98558.352       13448.343       3.1537500       2.4015000     -0.14725000       343.43200       2.0303846     0.011803876
       1719.0000       292.05665       98555.393       13407.374       3.9627500       1.6000000     -0.13550000       343.28100       2.0653107     0.012203813
       1724.0000       292.05503       98552.448       13352.170       4.1325000       2.5210000      0.61650000       343.07400       2.0085381     0.013399100
       1730.0000       292.05465       98556.030       13305.493       4.1697500       2.8822500     -0.14350000       343.22900       2.0872420     0.014269019
       1735.0000       292.02379       98560.586       13256.755       3.5875000       2.5450000      0.17125000       343.19600       2.0453756     0.013781462
       1740.0000       291.99393       98555.413       13226.990       3.3762500       3.3155000     -0.11275000       343.15100       2.0382748     0.012155203
       1745.0000       291.96670       98543.327       13212.950       3.5227500      0.92675010     -0.28475000       343.61900       2.0195860     0.012632450
       1750.0000       291.94663       98544.555       13215.568       3.1220000      0.53125000     -0.51200000       343.26000       2.0396385     0.011911649
       1755.0000       291.89688       98546.779       13224.534       1.5887500      0.38525000      0.57550000       343.74100       2.0472869     0.012872982
       1760.0000       291.88953       98544.008       13257.278       2.0320000       2.6700000      0.41375000       343.55200       2.0514137     0.012473749
       1765.0000       291.94863       98550.940       13348.803       3.9585000       2.1867500     -0.18075000       343.20700       2.0351478     0.011468284
       1770.0000       291.95774       98557.796       13394.008       3.6115000       1.5657500     -0.44725000       343.54500       2.0839222     0.013524673
       1775.0000       291.94230       98557.781       13409.022       5.2430000       1.9037500      0.19650000       343.36200       2.0203951     0.012845948
       1780.0000       291.95226       98554.839       13454.080       3.0885000       2.7222500      0.15875000       343.51300       2.0296327     0.012589324
       1785.0000       291.97245       98557.573       13519.125       3.8607500       3.7950000     -0.11175000       343.12300       2.0622741     0.013486823
       1790.0000       291.95104       98557.224       13534.146       3.5660000       2.0335000     -0.35400000       343.26800       2.0220650     0.011806871
       1795.0000       291.90839       98539.063       13548.161       3.2382500       1.7935000      0.31550000       343.24600       2.0295595     0.012056322
       1800.0000       291.89884       98536.813       13551.501       2.3727500       1.4872500     -0.92600010       343.38400       2.0722363     0.013618684
       1805.0000       291.83940       98550.711       13471.698       2.8745000      0.72000000      0.14275000       343.49800       2.0733234     0.013469849
       1810.0000       291.83272       98556.767       13446.260       2.8005000       1.9877500     -0.25950000       343.52200       2.0366024     0.012694843
       1816.0000       291.92074       98571.466       13459.410       2.8147500       1.2470000      0.31175000       343.43000       2.0549232     0.012565650
       1821.0000       291.97040       98573.516       13481.167       2.7140000      0.89775000      0.26350000       343.38100       2.0260369     0.012423794
       1826.0000       292.04573       98564.055       13551.879       2.2180000       1.0407500     -0.38675000       343.59400       2.0489523     0.013819309
       1831.0000       292.06810       98558.773       13565.876       1.6162500       2.3455000      0.41650000       343.52800       2.0481431     0.013566495
       1836.0000       292.04442       98543.698       13555.922       2.4030000       1.1615000      0.37350000       343.49300       2.0301328     0.013469207
       1841.0000       292.05432       98542.670       13560.525       2.9055000       1.6272500      0.30875000       343.57700       2.0087675     0.012920512
       1846.0000       292.05586       98554.849       13540.559       1.3500000       1.2637500      0.75875000       343.58000       2.0418851     0.012118645
       1851.0000       292.04544       98556.499       13523.104       2.0150000       2.3950000      0.26300000       343.39900       2.0040651     0.012532536
       1856.0000       292.05662       98558.545       13526.405       3.4807500       2.2107500     -0.70275000       343.11200       2.0160010     0.012637834
       1861.0000       292.05300       98562.211       13519.039       3.0555000     -0.39925000       1.0360000       343.58800       2.0549071     0.011411743
       1866.0000       292.01798       98562.973       13494.580       3.8995000       3.9052500      0.14800000       343.31900       2.0253846     0.012862084
       1871.0000       291.98824       98559.714       13466.536       2.3485000       2.1912500      0.37525000       343.33800       2.0473905     0.011998706
       1876.0000       291.94940       98554.116       13419.878       4.6830000       3.7392500     -0.25700000       343.17700       2.0002235     0.012729967
       1881.0000       291.94333       98555.514       13416.301       2.5835000       2.3872500    -0.099500010       343.40000       2.0552996     0.013176691
       1886.0000       291.95623       98559.710       13429.468       1.7027500       1.4955000      0.72100000       343.40100       2.0318994     0.013058567
       1891.0000       291.94600       98553.901       13433.250       2.5830000       1.2385000      0.80175010       343.55300       2.0144242     0.012355124
       1896.0000       291.95661       98543.070       13480.101       4.5650000       3.6187500      0.18275000       343.23300       2.0413499     0.012938488
       1901.0000       291.95293       98544.798       13493.248       2.8897500       1.4230000     -0.35525000       343.46500       2.0553665     0.013212141
       1907.0000       291.90048       98547.488       13466.142       2.7280000       1.2337500       1.0562500       343.39300       2.0510060     0.011527227
       1912.0000       291.88690       98542.657       13454.024       3.1697500       1.5167500       1.6510000       343.48100       2.0326965     0.012210410
       1917.0000       291.91153       98543.251       13452.443       3.2177500       3.0452500     -0.62125000       343.32300       2.0216720     0.011692935
       1922.0000       291.89562       98548.213       13429.258       2.3577500       4.5545000      -1.2190000       343.14300       2.0497562     0.011305656
       1927.0000       291.85945       98547.314       13384.457       1.6930000       3.3097500     -0.49575000       343.36400       2.0046464     0.012894873
       1932.0000       291.83945       98542.447       13358.358       1.8445000       2.9610000      0.62825000       343.33600       2.0496717     0.012221364
       1937.0000       291.80132       98541.991       13318.603       3.3367500       2.4627500    -0.034250000       343.29600       2.0471114     0.011545199
       1942.0000       291.78747       98548.746       13308.808       4.1777500       3.3135000     -0.82475010       343.15500       2.0105993     0.012190221
       1947.0000       291.79993       98552.809       13319.578       2.7807500       2.4050000     -0.27400000       343.21400       2.0443198     0.012632741
       1952.0000       291.79993       98548.214       13336.878       2.5887500       3.2870000     0.014500000       343.21700       2.0699983     0.012464931
       1957.0000       291.81110       98547.934       13388.276       3.7292500       3.2790000     -0.19900000       343.18000       2.0686617     0.014308000
       1962.0000       291.79487       98553.904       13396.736       2.8967500       1.9195000    -0.046000000       343.40200       2.0688128     0.012700422
       1967.0000       291.75877       98552.492       13385.905       1.7432500       1.6410000      0.80600010       343.51800       2.0492223     0.012296904
       1972.0000       291.73865       98546.560       13394.259       2.5930000       1.6027500     -0.34525000       343.29900       2.0676835     0.013679114
       1977.0000       291.70093       98547.751       13386.667       4.2905000       3.1842500      -1.1102500       343.17300       2.0347703     0.012206925
       1982.0000       291.68707       98553.854       13390.515       4.7065000       2.6557500     -0.67175000       343.16400       2.0502766     0.011255068
       1987.0000       291.68893       98552.793       13411.942       3.2260000       1.7870000      0.30450000       343.29400       2.0440511     0.012329487
       1992.0000       291.70512       98546.801       13439.436       2.7847500   -0.0010000000       1.0835000       343.42700       2.0592447     0.012543690
       1998.0000       291.75530       98550.095       13482.008       2.6330000       1.7375000    -0.048500000       343.37000       2.0636937     0.010489227
       2003.0000       291.75634       98554.201       13486.762       5.8842500       1.1562500      0.40250000       343.08400       2.0989311     0.013301847
       2008.0000       291.74828       98546.257       13485.159       4.3200000       2.3712500     -0.32925000       343.24300       2.0882501     0.013430195
       2013.0000       291.75841       98540.269       13505.456       2.8872500       1.0505000      0.15550000       343.35200       2.1013494     0.012974034
       2018.0000       291.75175       98543.380       13516.266       3.7002500      0.79025010    -0.022000000       343.13200       2.0446182     0.012554707
       2023.0000       291.74188       98550.131       13507.410       3.0667500       2.0120000     -0.32800000       343.30800       2.0454538     0.012256277
       2028.0000       291.73883       98549.958       13501.316       2.7065000       1.9102500    -0.089500000       343.22000       2.0694906     0.012617446
       2033.0000       291.76776       98548.730       13530.855       3.3850000       2.5207500     -0.38275000       343.24700       2.0442370     0.011736496
       2038.0000       291.79925       98560.871       13551.718       2.0782500       1.4852500     0.034500000       343.37400       2.0481317     0.012561212
       2043.0000       291.80926       98565.344       13559.388       2.1015000       1.2665000     0.035000000       343.44600       2.0590650     0.011696738
       2048.0000       291.85074       98557.532       13610.899       1.3132500      0.89450000     -0.24425000       343.47900       2.0630879     0.012523104
       2053.0000       291.87162       98549.749       13630.594       2.7732500       1.5722500     0.036500000       343.61800       2.0333574     0.011301982
       2058.0000       291.85145       98543.926       13599.261       3.0150000      0.49075000     0.032000000       343.25800       2.0932211     0.011494157
       2063.0000       291.84146       98546.645       13587.795       3.3437500       1.2337500     -0.82375000       343.38600       2.0425362     0.013030692
       2068.0000       291.86530       98544.482       13605.965       3.7137500     -0.12575000      0.26875000       343.02600       2.0583100     0.012906070
       2073.0000       291.83755       98543.127       13594.995       3.5922500       1.6315000     -0.40550000       343.16600       2.1530556     0.012904041
       2078.0000       291.75862       98555.122       13549.968       2.7665000       1.6150000     -0.19525000       343.50600       2.0650669     0.012976849
       2083.0000       291.70855       98560.369       13519.616       2.5565000       1.5292500      0.23450000       343.40800       2.0398479     0.014205968
       2089.0000       291.64401       98555.225       13494.033       2.2632500      0.55225000      0.36925000       343.63700       2.0261488     0.011868911
       2094.0000       291.59976       98552.338       13442.987       2.7037500       2.5227500     -0.25125000       343.47800       2.0616159     0.012897749
       2099.0000       291.58707       98555.336       13419.155       3.2457500       1.3070000     -0.74550000       343.01700       2.0517299     0.012546793
       2104.0000       291.59896       98558.349       13410.845       3.8532500       2.4297500     0.042000000       343.29900       2.0512563     0.013092911
       2109.0000       291.65002       98555.135       13424.815       2.6155000      0.22475000     0.080250000       343.49800       2.0912783     0.012600091
       2114.0000       291.67062       98552.141       13425.185       2.0637500      0.93225000     -0.36000000       343.58700       2.0278374     0.013450652
       2119.0000       291.69980       98555.250       13432.133       2.5525000      0.13425000     -0.33200000       343.34100       2.0797901     0.012501595
       2124.0000       291.74529       98558.433       13458.716       3.0697500       2.2005000   -0.0027500000       343.24600       2.0352898     0.011296672
       2129.0000       291.75712       98555.510       13468.224       3.1712500       1.9240000     -0.30350000       343.13800       2.0574694     0.013508923
       2134.0000       291.75510       98552.393       13477.986       1.4067500       1.2457500     -0.18575000       343.44000       2.0162063     0.012849518
       2139.0000       291.75623       98555.380       13491.312       1.7835000      0.78175000     0.040000000       343.47100       2.0428239     0.011636303
       2144.0000       291.74501       98558.352       13499.559       2.0942500      0.34550000      0.41350000       343.26900       2.0448075     0.011182131
       2149.0000       291.70052       98555.111       13494.979       2.7267500       2.0997500    -0.083250000       343.29200       2.0256781     0.013091209
       2154.0000       291.67043       98552.118       13477.638       3.0237500      0.86000000      0.16750000       343.32100       2.0453667     0.011685458
       2159.0000       291.63796       98555.348       13451.271       2.0665000       1.3267500     -0.21825000       343.34300       2.0532573     0.012129853
       2164.0000       291.69109       98558.441       13489.093       2.5502500       1.3135000     -0.22050000       343.26000       2.0797663     0.012953837
       2169.0000       291.70141       98555.507       13491.630       3.9295000       1.9602500     -0.46625000       343.28200       2.0603408     0.012064106
       2174.0000       291.74087       98552.323       13525.931       1.3050000      0.42675000      0.41550000       343.63400       2.0526140     0.011294764
       2180.0000       291.76462       98555.923       13535.115       2.2377500       1.3000000     -0.52225000       343.45300       2.0875450     0.012598573
       2185.0000       291.72425       98560.549       13478.520       2.4632500       2.6175000      0.26975000       343.69000       2.0662497     0.012069994
       2190.0000       291.69450       98555.316       13438.357       2.0440000       1.8215000     -0.32100000       343.28500       2.0460846     0.012341036
       2195.0000       291.65203       98543.455       13388.097       2.6462500      0.82025000      0.69775000       343.51900       2.0297090     0.012692347
       2200.0000       291.64321       98544.704       13362.660       3.7932500       1.9660000     -0.16750000       343.13600       2.0913486     0.012203060
       2205.0000       291.64418       98549.331       13339.050       3.2675000       1.5625000     -0.32825000       343.27600       2.0599677     0.012578408
       2210.0000       291.64538       98544.251       13330.181       1.5337500       1.0727500     -0.21275000       343.42000       2.0314339     0.012995126
       2215.0000       291.69048       98541.091       13359.729       1.3907500      0.90000000     -0.12650000       343.44500       2.0680428     0.011620113
       2220.0000       291.70968       98546.020       13373.812       2.8452500       1.0970000      0.11950000       343.33500       2.0700096     0.010714463
       2225.0000       291.68593       98549.137       13373.590       2.6760000      0.97475000      0.16500000       343.38000       2.0641843     0.011263109
       2230.0000       291.69719       98544.121       13392.391       3.0952500      0.46775000      0.21850000       343.47000       2.1303367     0.011953282
       2235.0000       291.74811       98541.457       13432.409       3.8310000     -0.19525000    -0.078750010       343.14600       2.1604108     0.013829470
       2240.0000       291.75681       98546.444       13450.937       4.0210000      0.75025000      0.37150000       343.40300       2.3174283     0.012909021
       2245.0000       291.74232       98549.290       13448.673       3.0342500       1.2725000      0.14875000       343.32200       2.2861708     0.011667763
       2250.0000       291.75276       98544.210       13481.948       3.1452500      0.66500000     -0.38850000       343.22100       2.3772490     0.014130871
       2255.0000       291.75800       98541.068       13541.502       3.1015000      0.96150000      0.30375000       343.30500       2.0700110     0.011169388
       2260.0000       291.74796       98546.013       13565.409       2.6555000       1.9597500      0.16750000       343.27500       2.1269050     0.011226257
       2265.0000       291.74211       98549.128       13593.801       2.6102500       2.1207500     -0.43425000       343.04200       2.1091918     0.012040263
       2271.0000       291.75387       98543.132       13628.616       2.2120000      0.13875000      0.65175000       343.46200       2.0753140     0.012427505
       2276.0000       291.74314       98542.125       13620.519       2.6057500      0.90675000     -0.17150000       343.34000       2.0774397     0.010920337
       2281.0000       291.74692       98547.044       13623.701       2.6227500       1.2512500       1.0215000       343.46400       2.0424080     0.011619956
       2286.0000       291.78182       98548.086       13643.061       2.1487500       1.4470000     -0.13125000       343.31400       2.0937539     0.011779216
       2291.0000       291.81200       98543.097       13665.414       4.2565000       2.3500000     -0.82350000       342.88200       2.0565558     0.013053582
       2296.0000       291.82517       98542.143       13668.580       3.0452500       1.3290000      0.15150000       343.43700       2.0591257     0.010626288
       2301.0000       291.85909       98547.261       13693.603       3.1955000       1.6585000      0.15450000       343.20900       2.0796450     0.010658519
       2306.0000       291.94705       98546.101       13772.822       2.4987500       1.7860000     -0.20075000       343.07800       2.0597248     0.011909846
       2311.0000       291.97016       98543.923       13793.325       2.4840000       1.4687500     -0.51750000       343.21600       2.0958738     0.013118346
       2316.0000       291.94445       98552.515       13772.553       1.6812500       1.0175000      0.24625000       343.54300       2.1082027     0.014036480
       2321.0000       291.95452       98558.720       13777.366       2.5470000       1.1315000     -0.16500000       343.34300       2.0470993     0.011010404
       2326.0000       291.95574       98556.967       13773.462       1.8962500      0.84650000      0.41750000       343.63400       2.0661009     0.011538720
       2331.0000       291.94585       98553.990       13757.550       2.0557500      0.32475000     0.080750000       343.66900       2.0659042     0.011039886
       2336.0000       291.95656       98553.489       13744.270       3.0700000      0.30650000     -0.14000000       343.22200       2.0261448     0.011792065
       2341.0000       291.95294       98556.593       13738.758       2.1410000      0.78750000     -0.11075000       343.66400       2.2146840     0.012988163
       2346.0000       291.90446       98557.176       13713.354       2.8622500      0.88975010     -0.42725000       343.47500       2.2596151     0.011716967
       2351.0000       291.88790       98554.189       13698.610       3.7855000       1.7357500     0.044500000       343.11900       2.1640141     0.012756507
       2356.0000       291.88762       98556.121       13708.960       2.3952500       1.2320000     0.037500000       343.43500       2.0850195     0.011656910
       2362.0000       291.90587       98556.086       13709.927       3.5805000       1.5205000      0.20575000       343.39200       2.0933478     0.013625911
       2367.0000       291.95304       98544.649       13707.440       2.9595000       2.0807500      0.17400000       343.14200       2.0985421     0.012812025
       2372.0000       291.95687       98542.487       13687.740       2.9777500      0.75400000     -0.19800000       343.22600       2.0807171     0.011706280
       2377.0000       291.99295       98550.261       13679.465       3.0800000       1.3087500    -0.094000000       343.29000       2.0820333     0.012921947
       2382.0000       291.93702       98551.659       13631.887       2.9217500       1.5502500     -0.30250000       343.36100       2.0802889     0.013300473
       2387.0000       291.78639       98550.505       13538.503       2.0442500      0.44625000      0.24975000       343.42500       2.0797681     0.011814017
       2392.0000       291.69594       98550.607       13472.121       3.0707500       1.5857500     -0.11300000       343.05100       2.0733989     0.012006283
       2397.0000       291.55881       98548.091       13388.221       2.7897500       1.2630000     -0.37325000       343.17600       2.0667771     0.011804213
       2402.0000       291.49684       98551.388       13335.938       2.3242500       1.0780000      0.36925000       343.39700       2.0912644     0.013796189
       2407.0000       291.48944       98558.910       13292.497       2.3990000       1.4092500      0.37150000       343.14300       2.0886300     0.012736100
       2412.0000       291.49175       98562.939       13282.193       3.0345000       1.0630000     -0.10100000       343.23700       2.0683051     0.012918516
       2417.0000       291.54159       98573.718       13298.963       2.4997500      0.98075000     -0.15900000       343.09900       2.0813358     0.012291863
       2422.0000       291.56188       98571.522       13325.017       2.7022500      0.29325000     -0.15700000       343.31700       2.0706474     0.011332936
       2427.0000       291.59883       98554.336       13394.850       2.3870000      0.99275000      0.22275000       343.37200       2.0633295     0.011236438
       2432.0000       291.61263       98553.263       13428.154       1.5977500      0.41275000     0.038000000       343.35300       2.0501770     0.012077173
       2437.0000       291.60004       98558.893       13443.305       1.9900000       1.1680000     -0.16125000       343.28000       2.0599420     0.012443734
       2442.0000       291.60004       98552.732       13482.336       2.0592500       1.6165000     -0.37475000       343.37000       2.0904268     0.010967237
       2448.0000       291.59080       98543.611       13519.430       1.2025000       1.1052500       1.5570000       343.63800       2.0721103     0.011184587
       2453.0000       291.60930       98546.337       13580.309       2.3340000       1.2395000     -0.46575000       343.40200       2.0651564     0.011742717
       2458.0000       291.64582       98546.207       13697.917       3.8912500       1.9377500     -0.82000010       342.96200       2.0681941     0.013183197
       2463.0000       291.66561       98541.217       13732.125       1.8600000       1.4150000     -0.36000000       343.42700       2.0476360     0.010885108
       2468.0000       291.69384       98544.814       13745.010       2.8975000       1.6367500      0.18650000       343.42800       2.0829203     0.010426090
       2473.0000       291.72401       98549.869       13749.900       2.3762500      0.85700010     0.085500000       343.56400       2.0959120     0.013272253
       2478.0000       291.74583       98546.373       13704.979       1.2130000      0.81375000      0.45150000       343.67300       2.0294678     0.012369038
       2483.0000       291.76598       98541.310       13686.916       2.3680000      0.45625000   0.00075000000       343.51000       2.0811071     0.012028628
       2488.0000       291.79390       98543.984       13671.611       1.6717500      0.72900000    -0.068000000       343.46700       2.0942603     0.013616465
       2493.0000       291.82387       98548.986       13679.932       2.3427500       1.4230000     -0.20625000       343.19300       2.0778633     0.012969363
       2498.0000       291.83705       98546.167       13693.456       2.3040000      0.99750010   -0.0037500000       343.23200       2.0718387     0.010420809
       2503.0000       291.87535       98541.177       13707.645       1.2535000       1.2477500      0.77325000       343.05300       2.0746413     0.011671434
       2508.0000       291.95791       98544.855       13764.863       1.9205000       1.9817500     -0.13400000       343.09500       2.0912883     0.012101157
       2513.0000       291.97012       98549.909       13758.997       2.0710000       2.4507500     -0.53250000       343.00600       2.0935170     0.013528058
       2518.0000       291.95690       98544.741       13705.373       2.2707500       1.5072500     -0.31400000       343.03300       2.0670408     0.014032190
       2523.0000       291.94824       98543.523       13700.638       1.0015000       1.0175000      0.19975000       343.32700       2.1110218     0.010972820
       2528.0000       291.90544       98556.888       13697.050      0.97750000      0.57975000      0.26475000       343.59900       2.1104106     0.013864121
       2533.0000       291.87542       98558.389       13688.525       1.2612500      0.42900000      0.14750000       343.58300       2.0792899     0.013447584
       2539.0000       291.84383       98543.448       13698.931       1.0495000      0.85450010      0.37350000       343.61800       2.1074216     0.013472754
       2544.0000       291.85983       98548.866       13718.977       1.7355000      0.87450000    -0.020000000       343.19400       2.0630879     0.012329952
       2549.0000       291.84976       98550.994       13712.730       1.9697500       1.3802500     -0.11750000       343.58400       2.0559330     0.011107897
       2554.0000       291.83969       98551.873       13701.131       2.0315000      0.95525000     0.092500000       343.42300       2.0771028     0.013760159
       2559.0000       291.85068       98550.577       13702.759       1.8895000      0.33350000      0.15975000       343.46800       2.0770320     0.012989635
       2564.0000       291.86064       98550.685       13697.179       2.5300000      0.25125000     -0.23725000       343.17300       2.0917287     0.013116138
       2569.0000       291.84445       98550.907       13659.102       3.8177500      0.61700000     -0.10100000       342.94600       2.0882635     0.012793580
       2574.0000       291.88486       98542.683       13660.773       2.8375000       1.0482500    -0.046750000       343.36700       2.0700324     0.012768116
       2579.0000       291.90634       98543.189       13681.129       2.1287500      0.96425000    -0.034000000       343.67600       2.0633249     0.014131563
