MIRICO/SHELL project - Processed LDS file generated on
Tue Jul 18 23:18:11 2017
Time stamp for record start
05/11/2017  15:22: 7.0000
Nb of points in the record
         511
Beam position index
       4.0000000
Beam angle (degrees)
    -0.033000000
Open Path length (m)
       98.010000
****************** Temporal data record ************************
Elapsedtime_sec Temp_K Press_Pa Humidity_ppmv WindX_m/s WindY_m/s WindZ_m/s Speedofsound_m/s CH4vmr_ppmv CH4vmrerror_ppmv  
      0.00000000       292.71670       98561.948       13406.673      0.85425000       1.4087500      0.18975000       344.42300       1.8897915     0.010121226
       5.0000131       292.76473       98557.638       13411.500       1.9617500       1.3000000     -0.12600000       343.73100       1.8924943    0.0089142756
       9.9999860       292.82482       98559.732       13442.456       1.2517500       1.8665000     -0.20025000       343.59100       1.9101910    0.0096915255
       14.999999       292.86400       98574.435       13493.801      0.98350010      0.65900000      0.41575000       344.78200       1.9171677    0.0091066114
       20.000012       292.91747       98578.200       13532.137       2.0840000       3.0497500     -0.38250000       344.22900       1.8839084    0.0084478750
       24.999985       293.02823       98580.081       13599.020      0.90525010       2.0412500     -0.10475000       344.84000       1.9213202    0.0089860441
       29.999998       293.08074       98575.742       13644.804       2.0252500       2.6937500     -0.39550000       343.09100       1.9078284    0.0089345316
       35.000011       293.10845       98554.206       13676.917       1.0287500       2.3792500     -0.16425000       343.51900       1.9208563     0.010043859
       39.999984       293.11079       98552.085       13689.369       1.0720000       1.6662500     0.021000000       344.04400       1.8959375    0.0090997532
       44.999997       293.03609       98558.263       13662.894       1.0085000       1.5287500    -0.081500000       344.42300       1.9391617     0.010357956
       50.000010       293.04343       98559.922       13689.115       1.7087500       1.7235000      0.93225000       344.55800       1.9093452    0.0085994038
       54.999983       293.05630       98578.239       13717.170       1.8007500      0.83225010      0.26550000       344.25700       1.8833736    0.0091805293
       60.999991       293.12180       98577.755       13771.126       2.3725000       1.2575000     -0.11775000       343.93400       1.9226139    0.0089595500
       66.000004       293.27108       98553.241       13874.288       1.9302500     0.089000000      0.60775010       345.27600       1.9013369     0.010063961
       71.000017       293.35392       98552.372       13947.297       3.5487500      0.25325000      0.40600000       344.70500       1.8765140    0.0091909689
       75.999990       293.45174       98558.063       14028.239       2.5437500      0.93300000    -0.041000000       344.20600       1.8448177     0.010078110
       81.000003       293.48249       98560.360       14059.877       1.6592500      0.91025010      0.50250000       345.69500       1.8914145    0.0092896551
       86.000016       293.45665       98578.992       14091.101       2.8807500       2.8520000     -0.58100000       344.43500       1.8730800    0.0089712103
       90.999989       293.45037       98577.609       14067.496       2.1682500       3.6727500     -0.13600000       343.91400       1.8891369    0.0095893947
       96.000002       293.42277       98553.208       13983.373       2.9505000       2.8220000     -0.34400000       344.23500       1.8630168    0.0097635547
       101.00002       293.37653       98552.321       13892.291      0.66950010       1.6992500      0.89725010       345.35900       1.8992098    0.0093632637
       105.99999       293.31543       98560.515       13749.261      0.77800010       4.2825000      0.29625000       343.38700       1.9422301    0.0099168798
       111.00000       293.27573       98559.492       13656.465       2.7832500       2.2970000     -0.37000000       344.71100       1.8995811    0.0094854920
       116.00001       293.22402       98567.345       13572.128       2.1695000       2.0967500    -0.051750000       343.93900       1.8770550    0.0096244978
       120.99999       293.16429       98566.856       13473.025       3.1887500       2.5465000     0.094250000       343.99000       1.9166378    0.0099292448
       126.00000       293.07096       98546.995       13335.142       2.2552500       2.7005000      0.10775000       343.13500       1.9139998    0.0087359098
       131.00001       293.09622       98547.813       13327.362       3.2597500       2.4235000    -0.085000000       343.12400       1.8528572     0.011492932
       135.99999       293.16993       98567.182       13368.726       1.6102500       2.6522500     -0.10875000       344.10600       1.9231772    0.0098695216
       141.00000       293.22221       98566.650       13407.987       3.7130000       2.0607500     -0.27100000       343.73300       1.9257957    0.0092975623
       146.00001       293.39757       98562.023       13571.336       2.4762500      0.62150000     -0.35800000       343.33900       1.8963346    0.0091914371
       152.00002       293.45844       98559.114       13664.354       2.0230000       2.5190000     -0.27050000       343.25400       1.9726279    0.0095681520
       156.99999       293.39149       98541.943       13660.155       2.3412500       1.7542500      0.11400000       343.36300       1.9231996    0.0090075579
       162.00001       293.41024       98543.166       13726.717       2.6322500       1.8945000     -0.26725000       343.69200       1.9556449     0.010677921
       167.00002       293.43527       98562.598       13828.148       2.7267500       2.9330000     -0.31000000       344.38800       1.9094428    0.0096215128
       171.99999       293.47417       98562.069       13908.040       2.5717500       2.4870000     -0.88575010       344.74700       1.9027273    0.0088413357
       177.00001       293.57517       98554.571       14033.877       4.2282500       2.4380000     -0.72275000       343.61500       1.9313698     0.010113445
       182.00002       293.55002       98556.587       14028.131       3.8827500       2.2107500     -0.53550000       343.06000       1.9317700    0.0090586227
       186.99999       293.47208       98553.389       13957.972       3.6542500       1.7882500     -0.95275000       343.58100       1.9030482    0.0098435711
       192.00000       293.40477       98555.997       13894.868       2.5770000       3.9772500     -0.76350000       343.79900       1.8882470    0.0088828577
       197.00002       293.23486       98573.802       13722.219       1.6770000       3.5800000      0.66925000       343.77200       1.9050464    0.0088298562
       201.99999       293.20018       98571.512       13680.571       2.2820000       2.0265000      0.11775000       343.35800       1.9317529    0.0090946051
       207.00000       293.23418       98552.881       13706.957       4.0482500       2.1550000     -0.21450000       343.39800       1.9188854    0.0095291642
       212.00002       293.26123       98554.309       13704.241       3.7277500       1.9402500     -0.25000000       343.89400       1.8629748     0.011322155
       216.99999       293.35782       98558.300       13750.685       3.2102500       1.8300000      0.64450000       344.17900       1.9090795    0.0092813204
       222.00000       293.37034       98561.101       13728.999       2.3297500       1.6607500    -0.034000000       344.28500       1.9143891    0.0096005511
       227.00002       293.34761       98579.406       13662.030       2.7620000       1.9355000     -0.10050000       344.86000       1.8807548    0.0095891024
       231.99999       293.35768       98576.340       13635.952       2.9117500       2.4765000      0.17475000       344.84500       1.9042298    0.0094461410
       237.00000       293.36212       98552.543       13591.337       1.2745000      0.79350010      0.78600000       345.71200       1.8733376     0.010326597
       243.00001       293.37006       98562.669       13638.329       2.6935000       2.2955000     -0.21900000       344.03600       1.9212471     0.010394447
       248.00002       293.32535       98560.770       13639.639       2.4047500       2.8902500     -0.10450000       344.85700       1.8893769    0.0093441383
       253.00000       293.23142       98557.649       13623.056       1.8585000       2.1267500     -0.13325000       345.25100       1.9208967     0.010149155
       258.00001       293.03307       98562.557       13587.271       1.9990000       1.0977500      0.57350000       345.47400       1.8820304    0.0092624459
       263.00002       292.97677       98560.049       13577.359       2.6062500       2.5297500     -0.44500000       344.57100       1.8992574    0.0095388724
       267.99999       292.92668       98541.308       13549.103       3.7757500       1.7045000     0.091500010       344.36900       1.9325508    0.0097642973
       273.00001       292.98635       98563.808       13528.324       2.2492500       2.1385000     -0.16425000       344.70300       1.8585434     0.010529567
       278.00002       293.04545       98568.521       13543.365       2.0297500       3.0640000     -0.24400000       343.36600       1.9135077    0.0098816373
       282.99999       293.11621       98562.489       13566.723       3.3985000       2.5012500    -0.089250010       343.16600       1.9107396    0.0093256973
       288.00001       293.19444       98561.799       13596.433       2.4640000       2.4517500     -0.35175000       343.52000       1.9046213    0.0091464536
       293.00002       293.32993       98549.211       13663.669       3.0457500       3.3655000     0.033750000       343.31000       1.9205098    0.0094143868
       297.99999       293.41181       98542.736       13739.397       4.8227500      0.73425000      0.58150010       344.34800       1.8857660    0.0091528123
       303.00001       293.46906       98541.178       13821.050       5.1282500       1.1282500       1.0585000       343.78800       1.9169279    0.0095522052
       308.00002       293.51867       98551.410       13904.434      0.90875010       4.1185000     0.097750010       343.46300       1.9176687    0.0088178767
       312.99999       293.51421       98550.038       13966.557       3.2135000       2.4170000      0.39575000       344.14000       1.8776601    0.0089864199
       318.00001       293.47424       98542.980       14067.804       3.3412500       3.7717500      0.41975000       344.18500       1.9032754     0.010527633
       323.00002       293.30792       98558.386       13969.801       2.0945000       3.9952500     -0.17825000       343.80700       1.9094618    0.0099129641
       327.99999       293.19674       98561.775       13897.295       4.1987500       4.9797500     -0.52350000       343.67400       1.9097645    0.0097970284
       334.00000       293.00451       98566.358       13722.821       4.7652500       4.9572500    -0.045250000       343.42600       1.9135610    0.0093049298
       339.00001       292.91045       98567.899       13615.739       4.6000000       2.5587500     -0.45050000       343.83200       1.9029732    0.0089992443
       343.99998       292.90972       98548.937       13540.545       3.4092500       2.8135000     -0.20475000       343.47800       1.8944654    0.0092832986
       349.00000       292.89124       98546.841       13480.200       3.6450000       2.4387500     0.029500000       343.62900       1.9378418     0.010678096
       354.00001       292.88613       98566.215       13411.299       2.6240000       3.5600000     0.051500000       344.04300       1.8768708    0.0096015186
       358.99998       292.89762       98567.725       13394.339       3.6920000       3.7330000     -0.67675000       343.66800       1.9538458     0.010923406
       364.00000       292.89238       98557.861       13409.635       3.7195000       3.9735000     -0.22625000       343.75600       1.9139077    0.0095925241
       369.00001       292.94602       98559.908       13462.500       2.6340000       1.8642500       1.0037500       344.07700       1.9038278    0.0092874660
       373.99998       293.07930       98559.133       13597.644       3.6357500       1.3047500       1.1712500       343.83500       1.9147655    0.0099924296
       379.00000       293.16854       98558.520       13693.522       3.2122500       3.3640000     -0.21000000       343.96700       1.9055062    0.0085267466
       384.00001       293.29014       98580.009       13796.829       1.6870000       1.4912500      0.16475000       344.12200       1.9239357     0.010432188
       389.00002       293.37708       98579.893       13903.157       2.4685000       2.7130000     -0.12025000       344.01300       1.9261317     0.010609831
       394.00000       293.40855       98545.948       13976.115       3.4115000       2.8305000      0.46850000       343.73000       1.9372251    0.0099287961
       399.00001       293.45843       98540.916       14082.273       2.4065000       3.6185000      0.27950000       343.78100       1.9383234    0.0094745552
       404.00002       293.52342       98547.117       14246.161       2.3402500       3.8592500     -0.42675000       343.33300       1.9113538    0.0093865071
       408.99999       293.56230       98548.546       14363.511       3.2137500       3.5720000      0.50000000       343.51600       1.9250310    0.0096156270
       414.00001       293.60415       98573.791       14518.500       2.4907500       3.7850000      0.79525010       344.02500       1.9274984    0.0098467936
       419.00002       293.61204       98581.017       14577.145       1.5180000       3.8995000      0.19525000       343.60200       1.9162413    0.0094608470
       424.99999       293.58792       98559.220       14587.961      0.58425000       2.9750000      0.42100000       343.98600       1.9263461    0.0097360289
       430.00000       293.54081       98557.714       14504.515       4.3170000       2.5557500     -0.23625000       343.78800       1.9192928    0.0098737994
       435.00001       293.45774       98567.935       14287.605       2.8797500       2.9920000      0.23800000       343.76500       1.9318871    0.0092789482
       439.99999       293.37370       98565.212       14116.713       3.3747500       3.6062500      0.28525000       343.51500       1.9525712    0.0098191024
       445.00000       293.24773       98559.701       13867.725       3.3752500       3.1132500      0.14750000       343.55300       1.9407247    0.0097854168
       450.00001       293.16120       98560.790       13698.269       3.7152500       2.3025000      0.20850000       343.77400       1.9197082    0.0098178844
       454.99999       293.07052       98552.468       13572.648       3.4320000       2.3157500     -0.47075000       343.59400       1.9149802    0.0088751349
       460.00000       293.01757       98553.279       13459.520       2.1600000      0.30525000     -0.11575000       344.08000       1.9080344    0.0092672660
       465.00001       293.01747       98580.372       13374.457       2.7090000       1.2872500     -0.10075000       343.85800       1.9110658    0.0099310105
       469.99999       292.98760       98578.870       13301.580       3.3305000      -1.6062500      0.32125000       344.08700       1.8651309    0.0094663564
       475.00000       292.96216       98549.114       13235.344       4.9030000    0.0062500000     0.038750000       343.96900       1.9093538     0.010077298
       480.00001       292.94225       98546.906       13205.480       4.5187500     -0.82025000     -0.62125000       343.56300       1.9083152    0.0096588898
       484.99998       292.93202       98549.738       13229.348       3.2322500       2.4670000      0.53225000       344.04100       1.9065985    0.0088474933
       490.00000       292.88812       98547.970       13217.523       4.9620000      0.24150000      0.16250000       343.85300       1.8803531    0.0094675734
       495.00001       292.84963       98565.713       13221.526       4.0920000      0.43000000      0.16850000       344.10100       1.9000798     0.010049172
       499.99998       292.78175       98569.581       13207.174       4.8522500      0.67900000      0.34175000       344.33100       1.9332486     0.010207323
       505.00000       292.64566       98547.803       13142.073       5.4382500     -0.11425000      0.18550000       344.02600       1.9095330    0.0099115427
       510.00001       292.55890       98546.902       13124.897       2.5897500       1.1640000      0.35750000       344.02500       1.9088772    0.0095651677
       516.00002       292.44796       98567.333       13114.660       3.1547500       1.6702500      0.61900000       344.05400       1.9182155    0.0093063072
       520.99999       292.41691       98566.833       13151.393       4.0042500       1.9980000     0.037500000       343.94200       1.9213727     0.010259365
       526.00000       292.45314       98560.107       13256.614       3.6940000      0.65725000     0.026750000       343.78400       1.9184647    0.0097603923
       531.00002       292.44306       98561.090       13298.176       5.1125000      0.22500000     -0.34000000       343.46300       1.9249413    0.0090192361
       535.99999       292.44649       98553.474       13340.133       5.2007500       1.4462500     -0.95975010       343.12500       1.9192668    0.0090568997
       541.00000       292.45691       98554.046       13382.009       3.5475000       1.2027500     -0.46475000       343.77100       1.8862429    0.0093467297
       546.00002       292.45455       98573.591       13386.939       3.2675000       1.1630000      0.37400000       343.58000       1.9147302    0.0099945499
       550.99999       292.44467       98572.940       13409.587       4.0582500      0.93750010      0.10650000       343.60900       1.8978218    0.0092516331
       556.00000       292.46861       98553.278       13472.923       3.6110000      0.28775000     -0.30625000       343.82700       1.8992795    0.0093045579
       561.00001       292.44625       98553.862       13486.251       3.8690000       1.1422500     -0.40600000       343.69900       1.9105345     0.010266337
       565.99999       292.37036       98561.910       13474.048       2.6367500      0.73425000     -0.11125000       344.11500       1.8581314     0.011407645
       571.00000       292.32088       98559.346       13443.160       3.9367500      0.99200000      0.47800000       343.61000       1.9291176    0.0091455498
       576.00001       292.27184       98562.435       13386.751       5.2577500      0.81000010      0.10100000       343.24400       1.8965743     0.010188272
       580.99999       292.22170       98561.542       13329.369       4.3995000       1.7030000     -0.19125000       343.63100       1.8843394    0.0090304904
       586.00000       292.17063       98542.850       13247.696       3.0362500       1.7307500     -0.11500000       343.60400       1.9186679    0.0094426091
       591.00001       292.12050       98542.559       13175.894       2.4265000       1.1450000     -0.36325000       343.78400       1.8967748    0.0093936596
       595.99999       292.05809       98557.561       13090.593       2.3202500      0.59925000      0.90475000       343.99000       1.9088851    0.0092532195
       601.00000       292.02420       98564.532       13037.955       4.5237500       3.2512500      -1.1660000       343.59900       1.9058544    0.0098618964
       607.00001       291.98858       98575.566       12970.411       3.7462500       1.0442500    -0.031250000       343.85400       1.9047814    0.0096797309
       612.00002       291.99628       98579.827       12976.691       4.7457500       2.1950000    0.0097500000       344.00300       1.8877369    0.0088602967
       616.99999       292.04505       98583.245       13037.617       5.2732500       2.7005000    -0.062500000       343.18400       1.8996846    0.0086179619
       622.00001       292.06499       98578.572       13074.636       4.9220000       1.6835000      0.81325010       343.54500       1.8803068    0.0097452011
       627.00002       292.08508       98566.500       13130.303       4.7242500       2.6652500     -0.67850010       343.18900       1.9364240    0.0091052599
       631.99999       292.13413       98560.515       13206.176       5.7657500       2.4062500     -0.38850000       343.05700       1.9260323    0.0094739027
       637.00000       292.19345       98546.487       13288.586       3.7682500     0.042000000     -0.15350000       343.39400       1.9002890    0.0089805017
       642.00002       292.23337       98548.685       13366.994       3.2800000       2.2290000     -0.12100000       343.55400       1.9166026    0.0089006503
       646.99999       292.32452       98567.657       13506.415       3.5190000       2.2792500     -0.25325000       343.22200       1.9208916    0.0085142553
       652.00000       292.30948       98566.103       13535.653       3.9027500       1.7892500     -0.24275000       343.17400       1.9529216    0.0096350216
       657.00002       292.21803       98559.417       13510.685       2.5137500       1.3782500       1.0772500       343.43600       1.9183170    0.0086104981
       661.99999       292.16015       98562.343       13470.241       1.8527500      0.72725000     0.097500000       343.80700       1.9193873    0.0088863723
       667.00000       292.05835       98559.957       13362.677       2.4910000      0.85450010      0.77525000       343.65800       1.9042230    0.0091502665
       672.00002       291.99680       98557.855       13298.019       2.9862500       1.5887500     0.073750000       343.69700       1.9063053    0.0090449148
       676.99999       291.95985       98567.423       13237.564       2.0872500      0.45375000    -0.074750010       343.52800       1.8932930    0.0091929518
       682.00000       291.90939       98565.948       13157.777       1.6747500      0.83875010      0.66400000       344.01400       1.9157765    0.0088927074
       687.00002       291.84118       98546.500       13059.413       2.5495000       2.0142500     -0.17775000       343.67700       1.9082195    0.0092401060
       692.99998       291.84512       98565.311       12991.431       2.9620000       2.0822500      0.18800000       343.23200       1.8934164    0.0086840990
       698.00000       291.84397       98567.741       12952.922       4.0530000       3.2735000     -0.21550000       343.26600       1.9343792    0.0091712926
       703.00001       291.85510       98565.240       12941.716       3.8265000       2.9112500     -0.29125000       343.28500       2.2955385    0.0090929879
       708.00002       291.89966       98559.778       12982.874       2.5237500       1.5965000     0.046500000       343.70900       2.6998327     0.010264495
       713.00000       291.92960       98562.850       13003.253       1.9340000      0.93450000      0.48275000       343.73900       2.7012586    0.0099413899
       718.00001       291.95545       98559.763       13029.046       2.2175000       1.9982500     0.030750000       343.35000       2.6113738    0.0093775629
       723.00002       291.92502       98565.207       13009.666       1.5880000       1.8532500     0.063750010       343.65000       2.4568315    0.0094201536
       727.99999       291.94360       98567.769       13039.630       2.2167500       1.9790000     -0.26400000       343.48100       2.1096009    0.0092330273
       733.00001       291.97484       98550.222       13087.929       3.9850000       1.5167500      -1.3112500       343.77300       2.6397846    0.0098010363
       738.00002       291.99332       98546.613       13138.726       2.7700000       2.8762500     -0.16850000       343.50800       2.4482904    0.0096050211
       742.99999       292.05480       98568.293       13253.814       3.6617500       3.5752500       1.2785000       343.31600       2.5567838     0.010468691
       748.00001       292.10559       98569.082       13339.998       3.6232500       2.4737500    -0.078500000       343.37400       2.6162258    0.0097794777
       753.00002       292.14408       98562.481       13411.547       3.2837500       2.6990000     -0.91800000       343.30900       2.8474111     0.010351611
       757.99999       292.14941       98548.575       13468.801       3.1385000       1.1432500    -0.077000010       343.36100       2.5123773    0.0095601773
       763.00001       292.16962       98551.827       13492.253       1.9645000      0.82175000     -0.34525000       343.62800       2.3715289    0.0087657919
       768.00002       292.20488       98548.380       13498.797       4.6475000       1.9997500     -0.31775000       343.17600       2.4310359     0.010635200
       772.99999       292.20018       98562.181       13460.487       1.9637500       1.8430000      0.74600010       343.77400       2.3992951     0.010158493
       778.00000       292.20029       98569.115       13429.865       2.5945000      0.69150000     -0.10375000       343.28500       3.4187067     0.011023848
       784.00001       292.20033       98550.405       13390.119       2.7532500       2.9342500     -0.72825000       343.13800       2.2960838     0.010136049
       788.99999       292.20045       98547.058       13356.483       3.4315000       2.1520000     -0.30075000       343.50300       2.7221947     0.010425529
       794.00000       292.21503       98561.411       13336.383       3.4490000       1.4965000      0.57675000       343.66100       2.3147470    0.0098100791
       799.00001       292.20370       98562.002       13289.675       2.1012500       2.5312500     -0.35700000       343.26000       2.3645355    0.0089816030
       803.99998       292.13777       98552.416       13172.988       1.8817500       1.4572500      0.56925000       343.52900       2.4352706    0.0097086235
       809.00000       292.14046       98554.740       13151.479       1.8830000       3.1977500     -0.17400000       343.37900       2.5948022    0.0099713088
       814.00001       292.19372       98561.372       13189.990       2.7947500       3.0480000     -0.24800000       343.38200       2.3676240    0.0094539127
       818.99998       292.20429       98560.457       13198.006       2.5235000       2.5102500      0.21100000       343.58500       2.4882858    0.0091161871
       824.00000       292.23305       98566.226       13256.585       2.3607500       1.9987500     -0.55400000       343.43300       2.5210687     0.011313390
       829.00001       292.26162       98567.669       13302.906       3.1680000       2.8145000     -0.25300000       343.22300       2.5178981     0.010261125
       834.00002       292.24391       98550.456       13299.542       4.2185000       3.4822500     -0.21950000       343.24800       2.4587970    0.0099535361
       839.00000       292.24508       98547.060       13322.097       2.4937500       2.9842500     -0.25350000       343.21100       2.5470057    0.0096791702
       844.00001       292.26093       98561.391       13380.088       2.3895000       2.7390000     -0.27575000       343.29200       2.5604407    0.0097144454
       849.00002       292.30231       98562.012       13432.314       1.5342500       1.5287500      0.54700010       343.91300       2.8152848    0.0099617206
       853.99999       292.39580       98552.407       13517.264       1.9410000       1.1857500      0.68725000       344.05900       2.2297096    0.0098612546
       859.00001       292.41325       98554.711       13535.741       2.5590000       2.5987500     -0.41275000       343.30900       2.4107704    0.0096786284
       864.00002       292.41152       98561.379       13503.766       2.1175000      0.93850000     0.054750000       343.62600       2.4212808    0.0095325440
       868.99999       292.40909       98560.465       13498.095       1.8757500       1.0765000      0.70700000       343.73700       2.8544967    0.0098968340
       875.00000       292.32296       98566.885       13450.385       1.4857500       1.2247500      0.54550000       343.96500       2.6295532     0.010590358
       880.00001       292.27719       98567.383       13417.475       1.6155000       1.0805000    -0.032000000       343.78000       2.5562403     0.010789529
       884.99999       292.26275       98549.065       13425.781       4.4460000      0.91375010      0.33850000       343.73200       2.2926251    0.0094096496
       890.00000       292.24274       98547.020       13402.232       3.1997500     -0.13450000      0.26800000       344.32200       2.2813339     0.010099830
       895.00001       292.21793       98561.724       13342.515       3.2732500       3.2535000     -0.49025000       343.38300       2.8812177     0.011340217
       899.99999       292.18761       98561.585       13296.232       1.7902500      0.46850000      0.62775000       343.87300       2.8371987     0.010302068
       905.00000       292.17424       98552.524       13254.532       2.3335000       1.6867500      0.27425000       344.01900       3.2895742     0.011085842
       910.00001       292.14059       98555.216       13210.134       3.4272500       2.3597500     0.050500000       343.91700       2.8419366     0.010493943
       914.99999       292.07976       98562.249       13158.183       4.6857500       1.4275000     -0.19375000       343.44400       3.1190658    0.0097485303
       920.00000       292.03039       98559.910       13113.815       3.3287500       1.7642500     -0.42350000       343.65400       3.1788497     0.010667965
       925.00001       291.95439       98559.199       13038.750       3.8822500      0.92500010      0.60025000       343.46700       2.6030854     0.010224798
       929.99998       291.93197       98561.817       13035.187       2.0925000       1.8115000      0.67475000       343.62900       2.2680002     0.011244042
       935.00000       291.95582       98555.958       13087.877       3.4947500       1.9775000      0.18675000       343.65600       2.8968320     0.010159435
       940.00001       291.94593       98552.668       13112.179       3.2782500       1.9065000     -0.11075000       343.30000       2.5907124    0.0099488806
       944.99998       291.94439       98562.444       13168.579       2.4157500       1.9305000     -0.40050000       343.51000       2.4318345    0.0096955694
       950.00000       291.95485       98562.048       13218.944       2.8000000       1.5065000      0.30550000       343.92700       2.1544940     0.010107842
       955.00001       291.94417       98543.648       13250.809       3.8530000       2.1267500    -0.040750000       344.03000       2.3355985     0.010179205
       959.99998       291.94798       98542.417       13279.020      0.88225010       1.7815000       1.1987500       343.95400       2.5797655     0.010240748
       965.99999       291.96531       98558.523       13318.645       3.8380000       2.2330000      -1.2012500       343.31800       2.8486403     0.010166877
       971.00000       292.02717       98555.032       13369.722       2.8582500       1.6975000     -0.62050000       343.42900       2.5194176    0.0093597268
       976.00002       292.12360       98543.535       13416.705       3.8745000       2.4780000      0.12950000       343.66500       2.8977729    0.0094662770
       980.99999       292.18396       98545.754       13457.656       3.0227500       1.1502500      0.24325000       343.78800       2.8627283     0.010077283
       986.00000       292.30768       98544.210       13538.482       4.2680000       2.0310000     -0.34425000       343.14200       2.9060122     0.011144931
       991.00002       292.33282       98544.160       13566.477       4.5600000      0.49675000      0.30400000       343.16600       2.7719062     0.010408858
       995.99999       292.27984       98559.239       13562.391       5.2845000       2.3655000    -0.050750000       343.18000       2.5276904    0.0096970981
       1001.0000       292.22768       98565.378       13533.939       3.8235000       2.2280000     -0.60550000       343.15300       2.6972328    0.0099711323
       1006.0000       292.09419       98558.957       13448.064       1.8565000       1.1350000      0.48100000       343.90800       2.5234742     0.010181889
       1011.0000       292.07350       98560.212       13432.177       2.7135000       1.6092500     -0.61700000       343.52000       2.6217528     0.010210328
       1016.0000       292.08508       98575.814       13421.877       2.9597500       1.6172500      0.34050000       343.38200       2.9626525     0.011009943
       1021.0000       292.09710       98570.570       13412.797       2.1387500       1.0275000      0.65975000       343.76700       2.5242297    0.0099236602
       1026.0000       292.18651       98543.846       13458.407       3.0625000      0.53925000     -0.22600000       343.71900       2.5496404     0.010522479
       1031.0000       292.23025       98541.996       13464.417       3.7702500    -0.033750000      0.17475000       342.92300       2.2833946     0.010212387
       1036.0000       292.24211       98545.371       13425.765       2.8027500      0.40325000    -0.084750000       343.50200       2.4346249    0.0099846627
       1041.0000       292.26230       98543.600       13423.415       4.2610000      0.67675000      0.93825010       343.39100       2.4040050     0.011481312
       1046.0000       292.27693       98555.949       13430.744       3.8540000      0.59875010     -0.85125010       343.57500       2.3338840    0.0092022373
       1051.0000       292.32289       98558.488       13456.967       5.0107500      0.72950010     -0.25175000       343.36000       2.7745990     0.010106967
       1057.0000       292.37413       98544.182       13500.053       3.0220000       1.0057500    -0.083000000       343.67500       3.0568953     0.010765260
       1062.0000       292.45086       98542.891       13563.476       4.4620000     -0.13975000      0.44325000       343.42500       2.8887294     0.011212871
       1067.0000       292.60650       98551.525       13665.989       2.6435000      0.59825000     -0.66250000       343.28200       2.7054522     0.010234507
       1072.0000       292.65017       98550.733       13739.343       3.7245000      0.30400000     0.010500000       343.68500       2.6868604     0.010196801
       1077.0000       292.65965       98543.045       13835.035       3.6710000     -0.60200010     -0.62175010       342.93500       2.4249199    0.0096240653
       1082.0000       292.66235       98546.714       13873.044       2.6270000      -1.2225000      0.55125000       343.62000       2.3963969    0.0091767693
       1087.0000       292.59660       98558.413       13878.614       2.7215000    -0.060000000     -0.22600000       343.29000       2.4596237     0.010704684
       1092.0000       292.58529       98553.962       13872.769       3.3425000     -0.26150000     0.032750000       343.20800       2.5267765     0.010182728
       1097.0000       292.59143       98543.611       13828.055       4.7360000     -0.57450000     -0.16850000       343.31200       2.3433591    0.0099107773
       1102.0000       292.61035       98546.337       13805.494       4.5997500     -0.96550010     -0.13275000       343.44300       2.1547910    0.0095023275
       1107.0000       292.63720       98544.654       13772.320       4.6440000     -0.10625000     0.052750000       343.33100       2.1512908     0.011379295
       1112.0000       292.67571       98543.442       13756.949       3.3957500     -0.90625010      0.80350010       344.22400       2.1169204     0.010489454
       1117.0000       292.73916       98557.549       13742.018       3.6542500     -0.61650000      0.33825000       343.80500       2.0357703     0.010272469
       1122.0000       292.78963       98559.080       13753.004       1.8955000      0.83700000      0.27700000       344.45500       2.8779953     0.010672290
       1127.0000       292.83062       98542.332       13761.589       2.3265000     -0.41400000    -0.036000000       344.04300       3.2298213     0.010826617
       1132.0000       292.89966       98544.654       13832.833       2.5580000       1.8872500     -0.10150000       343.94300       2.8875833     0.011311790
       1137.0000       293.00596       98562.653       13987.386       3.1222500       2.4632500     -0.62475000       343.53900       2.7699220    0.0097387823
       1142.0000       293.03898       98562.227       14027.237       3.4277500       1.2510000     0.014000000       344.08200       2.6800370    0.0086359757
       1148.0000       293.06245       98554.793       14066.053       3.3547500      0.79425000      0.15050000       343.97500       2.4471115     0.010040224
       1153.0000       293.06008       98556.907       14064.909       1.6725000      0.55625000      0.18100000       343.22100       2.9698445     0.010864281
       1158.0000       292.99412       98556.639       13975.325       2.4225000       1.3172500    0.0097500000       343.40400       2.6515014    0.0095448769
       1163.0000       292.98566       98549.448       13952.007       2.3797500       1.8917500     -0.30275000       343.64600       2.2748731     0.010504043
       1168.0000       292.99403       98544.071       13958.494       2.2727500       2.8170000     -0.29750000       344.24200       2.7054029     0.010105502
       1173.0000       293.04544       98547.524       13956.783       3.7650000       2.4345000     -0.21675000       342.97300       2.4992154    0.0095400860
       1178.0000       293.05703       98544.356       13932.847       2.5125000       1.0870000      0.36400000       343.18400       2.2466700     0.011202452
       1183.0000       293.02547       98549.504       13881.132       3.2827500      0.97325000    -0.040000000       342.98600       2.0193332    0.0090137302
       1188.0000       293.04432       98556.708       13863.176       1.9977500       1.0537500     0.019250000       344.24100       2.0590055     0.010639802
       1193.0000       293.07508       98553.870       13835.743       2.8082500      0.25825000     -0.53325000       343.42700       2.2607391     0.013689730
       1198.0000       293.09365       98553.506       13826.580       2.1855000      0.59775000     0.082250010       343.87700       2.4286450     0.011249876
       1203.0000       293.12455       98556.835       13839.552       1.2797500       1.1617500      0.24400000       344.61000       2.7987341     0.011249153
       1208.0000       293.23298       98573.548       13915.261      0.83725010       2.0367500      0.79075000       344.04700       2.4838907     0.010772980
       1213.0000       293.18605       98571.859       13891.792       2.1657500       1.4370000      0.58100000       344.17400       2.2237253     0.010327214
       1218.0000       293.05051       98559.015       13833.415       3.7480000       1.5202500     -0.33050000       344.35900       2.0733080     0.011877843
       1223.0000       292.91582       98566.778       13741.664       3.8475000       1.7515000      0.18300000       343.55100       2.0580981     0.010076665
       1228.0000       292.86839       98562.252       13714.817       2.3202500      0.66450010      0.12625000       344.28100       2.3962523     0.011044551
       1234.0000       292.95402       98544.087       13773.592       2.1252500    -0.056000000     0.013500000       345.23500       2.6705760     0.013609575
       1239.0000       293.00486       98543.424       13815.698       1.2650000      0.11225000      0.15300000       344.92900       2.3928714     0.010610088
       1244.0000       293.11390       98546.113       13903.121       2.4115000     -0.75625000     0.053000000       344.77300       2.1925114    0.0094922620
       1249.0000       293.17086       98543.389       13959.262       3.4612500     -0.16250000     -0.27550000       344.14100       2.2283019    0.0098037671
       1254.0000       293.18974       98550.890       14000.701       3.2142500      0.26075000      0.15100000       343.64300       2.0460662     0.014292549
       1259.0000       293.20861       98557.751       14033.536       2.6927500      0.79150000     -0.21725000       344.60600       2.3851760     0.011158554
       1264.0000       293.18584       98556.292       14031.636       3.5445000       1.4977500     0.081500000       343.61900       2.5533742     0.010478975
       1269.0000       293.19702       98554.391       14061.426       3.2070000       1.6407500     -0.48025000       343.06900       3.6122393     0.011765122
       1274.0000       293.23424       98562.106       14112.093       2.3152500      0.64400010      0.48750000       344.40400       2.4878543     0.010431325
       1279.0000       293.25400       98562.545       14146.591       2.4232500      0.53025000      0.20500000       344.94600       2.6989233     0.010510188
       1284.0000       293.30426       98544.561       14232.584       3.3002500       1.3815000      -1.4992500       343.46300       2.2406952     0.010909557
       1289.0000       293.31180       98542.168       14242.826       3.5887500       1.4780000     -0.43775000       343.19600       2.6090960     0.010810681
       1294.0000       293.28137       98558.473       14189.394       4.1602500       1.7887500     0.011250000       344.09600       2.6684467     0.010326089
       1299.0000       293.24996       98556.920       14141.056       3.4860000       1.0647500     -0.40550000       344.30200       2.2296099    0.0099484900
       1304.0000       293.17646       98543.466       14014.901       3.7052500       1.6340000    -0.069500010       344.32800       2.1532326     0.012063969
       1309.0000       293.13744       98544.865       13957.672       3.8372500      0.47625000      -1.0607500       343.45700       2.4027134    0.0097386036
       1314.0000       293.13786       98549.454       13980.010       2.7877500      0.30325000     -0.17675000       344.12600       2.5449083    0.0095275001
       1319.0000       293.09668       98544.488       13934.413       3.3342500      0.13250000     -0.11700000       343.99300       2.2889490     0.013042074
       1325.0000       293.01061       98542.269       13834.394       4.0447500       1.1347500     -0.74625000       343.36600       2.7918344     0.010393398
       1330.0000       292.98456       98547.228       13809.557       3.1765000      0.86050000      0.41875000       343.92500       3.0504683    0.0098568887
       1335.0000       292.94714       98545.358       13752.837       4.8450000      0.72850000    -0.096250010       343.42800       3.0404651     0.012689237
       1340.0000       292.93502       98543.159       13751.759       4.1450000    -0.026000000     -0.45375000       343.88100       2.5638163    0.0091883418
       1345.0000       292.98174       98556.274       13846.175       3.2000000     -0.64975010     -0.12600000       344.20200       2.1180665     0.011176921
       1350.0000       293.01195       98558.442       13908.692       2.5997500      0.82600000     0.050250000       343.71400       2.0246001    0.0087985440
       1355.0000       293.02587       98537.844       13970.156       2.6632500     -0.68350010     -0.22450000       344.34500       1.9877917    0.0089099879
       1360.0000       293.05976       98537.063       14026.653       2.6325000     0.074250010     -0.55300000       344.08600       1.9662822    0.0088116112
       1365.0000       293.13357       98555.648       14091.449       3.5797500     -0.69250010     -0.27625000       344.07000       2.1888449     0.011094349
       1370.0000       293.16936       98557.457       14151.430       2.1905000     -0.95525000      0.17500000       344.42300       2.2715059     0.012247157
       1375.0000       293.20803       98553.536       14210.798       3.1890000       1.5260000      0.16400000       344.52000       2.6000187     0.010242580
       1380.0000       293.21073       98556.539       14250.355       3.6452500       1.2915000      0.47950000       343.63800       2.2371597    0.0097170356
       1385.0000       293.16293       98559.794       14284.989       5.6697500      0.29325000     -0.46675000       343.21500       2.1965534    0.0097872543
       1390.0000       293.14284       98554.065       14310.503       5.1352500      0.49550000    -0.089750010       343.45700       2.4162999    0.0099814824
       1395.0000       293.13074       98543.273       14326.988       4.3195000     -0.28400000     -0.44400000       343.36200       2.3533967    0.0098252252
       1400.0000       293.08652       98545.091       14314.546       4.2440000      0.83575000     -0.34925000       343.31800       2.2939916    0.0097924841
       1405.0000       293.03550       98548.475       14287.994       2.9765000     -0.21425000     -0.10800000       344.15600       2.2815007    0.0099142295
       1410.0000       292.98168       98543.511       14250.871       4.4375000      0.75525000      0.14275000       343.56900       2.0695152    0.0096006592
       1416.0000       292.87044       98545.611       14163.277       2.9732500     -0.51150000     -0.31025000       343.88200       2.0533130    0.0095108739
       1421.0000       292.80705       98547.369       14100.687       2.5905000      -1.6477500     -0.24150000       343.39700       2.0243409    0.0089295134
       1426.0000       292.77102       98533.017       14046.680       2.8552500      -1.1972500     0.031250000       343.63900       1.9798650     0.010062322
       1431.0000       292.72076       98532.246       13977.829       3.3022500      -1.3722500     -0.18850000       343.56400       2.0080826    0.0091209129
       1436.0000       292.64812       98550.155       13870.324       3.8320000      -1.5385000      0.37850000       343.73700       1.9786051     0.010915340
       1441.0000       292.63080       98554.381       13833.852       3.4120000      -1.6390000      0.31225000       343.18000       1.9498832     0.010134897
       1446.0000       292.65461       98548.120       13824.425       3.1210000      -1.3202500     0.085750010       343.22000       1.9225437    0.0093961366
       1451.0000       292.64463       98551.367       13820.737       3.9900000      -1.5232500     -0.12875000       343.41200       1.9682709    0.0090324236
       1456.0000       292.64558       98561.941       13854.212       2.3660000      -1.3040000      0.35150000       343.44300       1.9280672    0.0097874200
       1461.0000       292.65524       98560.993       13896.902       1.9942500      0.86200000     -0.11850000       343.50100       2.5447104     0.010828251
       1466.0000       292.65352       98554.357       13963.624       2.1917500      0.50750010   -0.0090000010       343.27100       2.4320478     0.012033572
       1471.0000       292.64328       98555.988       13989.926       2.4767500     0.048500000    0.0082500000       343.87100       2.2662837     0.010167168
       1476.0000       292.64639       98558.847       14015.759       2.0067500     -0.10450000    -0.030000000       343.42400       2.3118354    0.0095627017
       1481.0000       292.65625       98552.621       14054.708       1.5832500      -1.0810000     0.088000010       344.02400       2.2106571    0.0095862292
       1486.0000       292.65350       98543.436       14074.105       2.4707500     -0.63475000      0.45675000       344.06700       2.1748707    0.0098918845
       1491.0000       292.64303       98545.755       14085.856       2.6142500      0.22675000     -0.16525000       344.01500       2.1780032    0.0099284612
       1496.0000       292.65662       98547.490       14127.513       2.5410000     -0.47500000     -0.13525000       343.90600       2.2392949    0.0093586532
       1501.0000       292.65052       98542.507       14141.262       2.8600000       1.1595000     -0.37300000       344.17300       2.2381559    0.0098176710
       1507.0000       292.59655       98544.226       14104.812       3.2557500       1.1350000      0.39025000       344.01900       2.1922464     0.011526450
       1512.0000       292.58520       98549.144       14096.942       4.8042500      0.99600010     -0.39750000       343.39900       2.3765112    0.0099187624
       1517.0000       292.60912       98544.163       14120.372       2.1475000       1.4227500      0.78625010       343.86100       2.3896204    0.0098170237
       1522.0000       292.58986       98543.015       14092.262       3.2875000     0.062500000     -0.72800000       343.74800       2.5631384     0.010292728
       1527.0000       292.56302       98556.845       14045.354       1.6287500      0.28050000      0.51450000       344.59800       2.3365218     0.012037132
       1532.0000       292.52433       98558.384       13981.049       2.6962500      0.49900000      0.19150000       343.82400       2.5332098     0.010582216
       1537.0000       292.44944       98543.957       13875.079       2.8770000      0.68875000      0.14225000       344.54400       2.6521329     0.011825156
       1542.0000       292.41791       98542.542       13810.694       4.7685000      0.86525010     -0.59250000       343.95700       2.5492977     0.010119773
       1547.0000       292.38769       98551.505       13730.737       3.9520000       1.4105000      0.24900000       343.75600       2.3809386     0.010581411
       1552.0000       292.39518       98550.735       13713.155       3.9622500      0.78750000      0.58650000       343.88900       2.3562732     0.010544779
       1557.0000       292.44624       98543.064       13743.937       3.5707500     -0.21175000     0.017750000       344.17400       2.4823278     0.010015842
       1562.0000       292.46608       98546.616       13757.054       3.4447500      0.47350000     0.058250000       343.93900       2.6672950     0.010677724
       1567.0000       292.51257       98553.505       13810.424       4.6872500       1.1550000     -0.22850000       343.75200       2.9194902     0.011384478
       1572.0000       292.50479       98558.396       13816.555       4.5045000       2.2760000     -0.14700000       343.69500       3.5436986     0.010744202
       1577.0000       292.45414       98571.013       13790.256       2.9360000       2.7700000      0.28275000       344.25700       2.5973746     0.010765204
       1582.0000       292.43412       98574.446       13797.549       2.1135000      0.84325000      0.72125010       344.38900       2.4215572    0.0097232793
       1587.0000       292.39710       98574.879       13804.967       3.5885000      0.86475000     -0.48050000       344.32100       2.4609477     0.010387091
       1592.0000       292.38574       98565.587       13815.663       3.9952500       2.4837500     -0.51125000       344.06500       2.5647107    0.0096253655
       1598.0000       292.40596       98542.078       13864.653       4.4890000       2.5727500     0.065750000       343.73400       2.5136699     0.010067611
       1603.0000       292.38487       98542.663       13827.733       3.6225000      0.82450000    -0.013250000       343.72500       2.6350885    0.0096334682
       1608.0000       292.35110       98545.041       13750.595       4.2790000       1.3122500      0.31200000       343.19700       2.8209175     0.010415292
       1613.0000       292.33104       98540.112       13700.397       3.8070000       1.7655000     -0.69925000       343.46700       2.6043317     0.010393069
       1618.0000       292.29984       98545.251       13618.325       2.8145000      0.54125010      0.32375000       344.03900       2.7369800    0.0093633374
       1623.0000       292.25461       98547.524       13551.408       3.4895000      0.87200000     -0.35350000       343.59500       2.7569363     0.011214906
       1628.0000       292.24302       98544.356       13514.043       2.3000000      0.89825000    -0.070500000       343.94600       2.8913798     0.010590830
       1633.0000       292.24491       98552.460       13473.505       4.5317500       2.4445000     -0.38050000       343.20200       2.9178362    0.0098340241
       1638.0000       292.24387       98557.873       13450.308       3.6340000      0.98025010       1.5470000       343.73300       2.6239496    0.0092628406
       1643.0000       292.25475       98549.303       13447.011       5.1602500       3.4562500     -0.15975000       343.35100       2.3919324    0.0094784415
       1648.0000       292.29311       98544.074       13481.168       4.6712500       2.1800000    -0.042250000       343.36200       2.4605481     0.010719578
       1653.0000       292.34381       98541.290       13539.871       2.0402500       1.9870000    -0.035000000       344.13700       2.4435312    0.0091415937
       1658.0000       292.40498       98546.092       13624.986       2.7970000       2.1257500     -0.40100000       343.82000       2.4034698    0.0096110058
       1663.0000       292.42407       98544.996       13677.786       3.4335000       1.5910000      0.94125000       343.75400       2.6242367    0.0097879115
       1668.0000       292.45600       98539.270       13755.528       6.7970000       2.8110000      0.12200000       343.54400       2.8652693    0.0096385295
       1673.0000       292.47498       98543.266       13830.819       3.4562500       2.7757500      0.90325000       344.00100       2.7206652    0.0096105040
       1678.0000       292.45651       98545.305       13855.509       2.1687500       2.1497500      0.98050000       343.42800       2.3789191    0.0092580202
       1683.0000       292.46997       98545.807       13901.848       4.5765000       3.0945000     -0.77550010       343.06700       2.6295261    0.0095147931
       1689.0000       292.41045       98550.553       13876.715       1.5917500      0.48175000      0.96475010       344.05200       2.6961822    0.0095371610
       1694.0000       292.22008       98561.507       13722.830       5.3185000       2.4287500    -0.024750000       343.46200       2.3403563    0.0098100876
       1699.0000       292.12311       98562.136       13632.614       3.6835000      0.69525000      0.42450000       343.68400       2.2464715    0.0090954206
       1704.0000       292.01656       98553.716       13525.288       3.7890000       1.6032500      0.24175000       343.54300       2.2924458    0.0096987647
       1709.0000       291.97162       98554.846       13452.999       1.9182500       2.6692500      0.56750010       343.83000       2.5507187    0.0095021473
       1714.0000       292.04848       98557.765       13440.525       3.5547500       1.7952500      0.35900000       343.60300       2.8842112     0.010346188
       1719.0000       292.05740       98554.792       13398.620       3.8595000       1.7632500     -0.17850000       343.37100       3.2023539     0.010507327
       1724.0000       292.05620       98553.047       13344.032       4.5995000       3.5900000     -0.59275000       342.97300       2.2637483    0.0097980216
       1729.0000       292.05465       98556.030       13305.493       4.2970000       2.9282500     -0.51475000       342.97900       2.4487326    0.0097355723
       1734.0000       292.02379       98560.586       13256.755       3.1652500       1.2407500     -0.14350000       343.43800       2.5347839     0.010252700
       1739.0000       291.99393       98555.413       13226.990       3.3817500       2.0010000     -0.37600000       343.27400       2.2584772    0.0095213656
       1744.0000       291.96670       98543.327       13212.950       2.7395000       1.3485000     -0.48175000       343.51700       2.4423334     0.010187846
       1749.0000       291.94663       98544.555       13215.568       2.7637500       1.1977500      0.60675000       343.50000       2.4568636     0.010060493
       1754.0000       291.89688       98546.779       13224.534       1.9052500       1.0935000      0.53800000       343.80900       2.2502271    0.0089542313
       1759.0000       291.88953       98544.008       13257.278       2.6490000       1.2160000     -0.70075010       343.46200       2.6283165     0.010340050
       1764.0000       291.94863       98550.940       13348.803       3.3222500       1.3460000      0.13025000       343.29000       2.5974331    0.0093777484
       1769.0000       291.95774       98557.796       13394.008       3.2840000       1.7665000      -1.0457500       343.39100       2.4834209    0.0090284412
       1774.0000       291.94230       98557.781       13409.022       4.9167500       3.3945000     -0.10425000       343.29500       2.4396573     0.010022116
       1780.0000       291.95425       98554.249       13463.432       1.6170000       2.9600000     0.089500000       343.48800       2.3889661    0.0097119696
       1785.0000       291.96917       98557.811       13523.383       3.6510000       3.9495000     -0.29825000       343.04600       2.6365653    0.0098220192
       1790.0000       291.94525       98556.693       13535.270       4.1557500       2.4537500     -0.18500000       343.24700       2.3458522    0.0096048198
       1795.0000       291.90647       98538.011       13550.715       3.0250000       1.9230000      0.33875000       343.32400       2.3992071    0.0098666165
       1800.0000       291.89695       98537.266       13549.343       2.3905000       2.0200000     -0.22200000       343.54600       2.2679871    0.0095149067
       1805.0000       291.83506       98551.929       13464.693       2.3245000       1.9047500     -0.16125000       343.57100       2.6066771    0.0098215727
       1810.0000       291.83590       98557.968       13444.041       2.5350000       1.9777500     0.099000010       343.53100       2.9475072     0.010728650
       1815.0000       291.92074       98571.466       13459.410       2.7465000       1.8012500      0.14125000       343.64200       2.5276368     0.010435437
       1820.0000       291.97040       98573.516       13481.167       2.0030000       1.3535000      0.35700000       343.62500       2.6060680     0.010362636
       1825.0000       292.04573       98564.055       13551.879       1.7972500      0.89750000      0.32025000       343.66800       2.6941967     0.010592013
       1830.0000       292.06810       98558.773       13565.876       2.4852500       2.5417500      0.26550000       343.48800       2.4714723     0.010375802
       1835.0000       292.04442       98543.698       13555.922       2.1415000      0.84625010      0.55375000       343.43800       2.4880049     0.012235917
       1840.0000       292.05432       98542.670       13560.525       2.3427500       1.6142500     0.066750000       343.46100       2.8709964     0.012308354
       1845.0000       292.05586       98554.849       13540.559       1.6540000      0.13550000      0.45550000       343.70800       2.4718612    0.0097592601
       1850.0000       292.04544       98556.499       13523.104       1.5557500       1.4370000      0.53125000       343.52500       3.3639120     0.012766368
       1855.0000       292.05662       98558.545       13526.405       3.6872500       2.3457500     -0.82900010       343.15100       2.3517421     0.011568031
       1860.0000       292.05300       98562.211       13519.039       1.3725000       1.6510000       1.0097500       343.66100       2.4397554     0.010818485
       1865.0000       292.01798       98562.973       13494.580       4.5667500       2.6955000     -0.52500000       343.16700       2.3703643     0.010681851
       1871.0000       291.98229       98558.914       13460.619       2.0915000       1.8512500      0.12175000       343.46700       2.8421234     0.010355633
       1876.0000       291.94719       98554.300       13417.878       2.6347500       3.8565000      0.51775000       343.27200       2.6012843     0.010334884
       1881.0000       291.94360       98555.937       13417.512       2.8772500       1.8355000      0.89200000       343.41000       2.3499214     0.011617075
       1886.0000       291.95418       98558.748       13429.522       1.6995000       1.1035000      0.45575000       343.64100       2.3362327    0.0093898108
       1891.0000       291.94395       98552.440       13435.060       3.2215000       1.9780000    -0.047500000       343.44400       2.2249385     0.010241812
       1896.0000       291.95686       98543.204       13484.075       4.6882500       3.1797500     -0.40600000       342.90000       2.6951678     0.011313577
       1901.0000       291.95072       98545.460       13493.859       2.2455000       1.6937500     -0.66450010       343.37200       2.6138359    0.0092550295
       1906.0000       291.90048       98547.488       13466.142       2.2420000       3.4412500      0.55575000       343.28100       2.4672312     0.012236505
       1911.0000       291.88690       98542.657       13454.024       3.0865000       2.1805000     -0.32400000       343.23000       2.2895514     0.011048806
       1916.0000       291.91153       98543.251       13452.443       2.2572500       2.3275000      0.57175000       343.47600       2.3109734    0.0096441014
       1921.0000       291.89562       98548.213       13429.258       3.0837500       3.6952500     -0.20700000       343.19100       2.3893901     0.011400607
       1926.0000       291.85945       98547.314       13384.457       1.4330000       3.0035000    -0.076750000       343.40800       2.2245135     0.011154341
       1931.0000       291.83945       98542.447       13358.358       2.0175000       3.0935000      0.58225000       343.42600       2.8934270     0.011258933
       1936.0000       291.80132       98541.991       13318.603       4.0975000       2.6235000     -0.27425000       343.19200       2.9082320     0.012364114
       1941.0000       291.78747       98548.746       13308.808       4.1227500       2.9177500     -0.28350000       343.19000       2.4397787     0.010098516
       1946.0000       291.79993       98552.809       13319.578       3.3862500       4.1745000     -0.15900000       342.88000       2.2988902     0.011752340
       1951.0000       291.79993       98548.214       13336.878       3.5340000       3.3737500      0.31275000       343.07500       2.3115858    0.0095473511
       1957.0000       291.80884       98549.127       13391.030       4.6900000       3.1525000     -0.24600000       343.16100       2.4794240     0.010986719
       1962.0000       291.79014       98555.099       13396.834       2.6620000       2.0495000      0.91875000       343.45000       2.5058907     0.012111235
       1967.0000       291.75477       98551.297       13387.590       2.0822500       1.0400000     -0.53700000       343.52700       2.6034643     0.013163277
       1972.0000       291.73458       98545.387       13395.908       2.8347500       1.6797500      0.73425000       343.44800       2.2199230     0.012431926
       1977.0000       291.69716       98548.971       13386.811       3.2950000       2.8547500      0.52675000       343.43900       2.6804605     0.012493759
       1982.0000       291.68579       98555.075       13392.225       4.3487500       2.0635000      -1.1977500       343.04300       2.4269018     0.010858225
       1987.0000       291.69116       98551.602       13417.035       2.6707500       1.2542500     -0.34550000       343.29300       2.2369882     0.012214185
       1992.0000       291.70987       98545.591       13445.545       2.9797500       1.0905000      0.55450000       343.37700       2.5079550     0.011058038
       1997.0000       291.75530       98550.095       13482.008       3.1745000      0.49375000      0.49400000       343.45100       2.5628087     0.013368930
       2002.0000       291.75634       98554.201       13486.762       5.3607500       1.3727500      0.46950000       343.13200       3.0524472     0.012506056
       2007.0000       291.74828       98546.257       13485.159       3.6945000       1.3080000     -0.24350000       343.20800       2.8306996     0.011508208
       2012.0000       291.75841       98540.269       13505.456       3.0630000       1.5200000     0.096750010       343.33300       2.8636035     0.011783683
       2017.0000       291.75175       98543.380       13516.266       3.6287500      0.30750000     -0.30150000       343.43000       2.5390771     0.011277918
       2022.0000       291.74188       98550.131       13507.410       2.9480000       2.1380000     -0.44625000       343.22200       2.6133188     0.010522120
       2027.0000       291.73883       98549.958       13501.316       2.1547500       1.9955000     -0.14000000       343.29500       2.3870545     0.013317046
       2032.0000       291.76776       98548.730       13530.855       2.7485000       1.6615000    -0.094000000       343.41000       2.2204401     0.010835141
       2037.0000       291.79925       98560.871       13551.718       3.1522500       1.2262500      0.17500000       343.43100       2.5588766    0.0096024124
       2042.0000       291.80926       98565.344       13559.388       1.6720000       1.0247500      0.37225000       343.53400       3.4158731     0.010824226
       2048.0000       291.85590       98556.074       13616.117       2.0352500       1.6215000     -0.18875000       343.46800       3.0514410    0.0099703630
       2053.0000       291.87431       98548.044       13632.611       2.8940000       1.1662500     -0.32850000       343.61000       3.0552969     0.012329081
       2058.0000       291.84943       98544.277       13596.757       2.8887500       1.2262500     0.093500000       343.28600       2.6803442     0.012333539
       2063.0000       291.83948       98547.478       13585.818       2.9735000       1.2055000     0.033750000       343.38700       3.3017164     0.011632894
       2068.0000       291.86176       98544.012       13604.857       3.0240000       1.4007500     -0.50200000       343.18400       2.9215958     0.012557692
       2073.0000       291.79899       98549.133       13574.643       3.6472500       1.8657500     -0.11950000       343.17300       3.2014951     0.011789793
       2078.0000       291.74857       98556.370       13543.854       2.3197500       1.2277500      0.37375000       343.48400       2.7092143     0.013427089
       2083.0000       291.68467       98558.224       13518.466       2.1205000       1.0652500      0.31575000       343.50200       2.3717594     0.012132603
       2088.0000       291.64401       98555.225       13494.033       2.3940000      0.31975000      0.23025000       343.50000       2.4927716     0.012061072
       2093.0000       291.59976       98552.338       13442.987       2.2317500       1.3120000     -0.58800000       343.45000       2.6844230     0.012624187
       2098.0000       291.58707       98555.336       13419.155       2.5075000      0.98675010      -1.1612500       343.35800       2.1970087     0.014538560
       2103.0000       291.59896       98558.349       13410.845       4.1960000       1.9492500     -0.30850000       343.35600       2.5315872     0.013264723
       2108.0000       291.65002       98555.135       13424.815       2.2955000     -0.22450000       1.1645000       343.40900       2.9495768     0.013399937
       2113.0000       291.67062       98552.141       13425.185       3.1522500       1.7475000     0.050250000       343.57200       2.5546062     0.011299716
       2118.0000       291.69980       98555.250       13432.133       1.8430000       1.3100000      0.32675000       343.37100       2.6739755     0.012422217
       2123.0000       291.74529       98558.433       13458.716       3.7967500       2.3180000     0.096750010       343.03200       2.7396854     0.013012566
       2128.0000       291.75712       98555.510       13468.224       3.7607500       2.0627500     0.060000000       343.29500       2.8929770     0.012530335
       2133.0000       291.75510       98552.393       13477.986       2.8692500       1.5005000     0.034500000       343.33800       2.7571485     0.011912105
       2139.0000       291.75497       98555.975       13493.369       1.1577500      0.64675000      0.53950000       343.56900       2.6467094     0.013605818
       2144.0000       291.72447       98557.535       13502.777       2.0627500       1.5920000     -0.22550000       343.35000       2.7444819     0.012266864
       2149.0000       291.69451       98554.509       13492.184       3.1160000       2.5117500      0.31475000       343.13900       3.0014483     0.013301819
       2154.0000       291.63783       98552.872       13447.925       2.4967500       2.2400000    -0.025750000       343.18700       2.4829593     0.010365008
       2159.0000       291.64049       98555.970       13453.689       1.9600000       1.1060000     -0.11700000       343.38500       3.1405073     0.013251339
       2164.0000       291.69321       98557.861       13489.639       3.8360000       1.4710000      0.38725000       343.30400       2.3739293     0.012857611
       2169.0000       291.70340       98554.910       13492.080       2.7335000       2.2052500     -0.59325000       343.20700       2.6086670     0.011885834
       2174.0000       291.74729       98552.922       13530.122       1.6192500      0.65075000      0.20825000       343.47600       2.9791471     0.012594276
       2179.0000       291.76462       98555.923       13535.115       1.5270000       1.1760000      0.46350000       343.47200       2.6028381     0.013544864
       2184.0000       291.72425       98560.549       13478.520       2.1975000       2.4855000      0.25375000       343.70000       3.0799014     0.012032470
       2189.0000       291.69450       98555.316       13438.357       2.1070000       1.3477500     -0.28025000       343.40300       2.5480075     0.011633687
       2194.0000       291.65203       98543.455       13388.097       3.2775000      0.43275000      0.27800000       343.12200       3.0733435     0.013899214
       2199.0000       291.64321       98544.704       13362.660       3.6427500       1.5275000      0.14525000       343.35300       3.2469408     0.014017600
       2204.0000       291.64418       98549.331       13339.050       2.5210000       1.4480000     -0.35475000       343.28800       3.2741193     0.012808926
       2209.0000       291.64538       98544.251       13330.181       1.9075000       1.9392500      0.29075000       343.28800       2.4785382     0.010394932
       2214.0000       291.69048       98541.091       13359.729       1.2190000      0.17800000      0.74925010       343.63600       2.9103961     0.013945339
       2219.0000       291.70968       98546.020       13373.812       3.1642500      0.49175000     -0.31750000       343.28300       2.5585898     0.011815610
       2224.0000       291.68593       98549.137       13373.590       2.4332500       1.2265000      0.21025000       343.53700       2.5794494     0.011608152
       2230.0000       291.70091       98543.116       13397.080       2.9937500       1.0400000      0.32175000       343.64500       2.9661987     0.012310695
       2235.0000       291.75084       98542.461       13436.498       3.1985000      0.36975000      0.47550000       343.42500       2.4889981     0.013775793
       2240.0000       291.75706       98547.431       13454.066       4.2195000      0.69050000     -0.16950000       343.28000       2.4258126     0.013062839
       2245.0000       291.74440       98548.272       13454.426       3.1727500      0.56775000      0.34975000       343.39900       2.7580760     0.011674713
       2250.0000       291.75486       98543.197       13489.956       2.6385000       1.1087500    -0.083000000       343.24200       2.4533906     0.013038827
       2255.0000       291.75601       98542.049       13546.778       2.9037500      0.99150000   -0.0085000000       343.33400       3.1305736     0.010478381
       2260.0000       291.74593       98547.014       13569.448       2.5675000       1.1272500      0.28650000       343.46800       2.5249414     0.010878351
       2265.0000       291.74408       98548.127       13600.705       2.4540000       1.1697500     -0.28300000       343.35400       2.6217565     0.012760004
       2270.0000       291.75387       98543.132       13628.616       2.2420000      0.21975000      0.47250000       343.41600       2.5376897     0.011464032
       2275.0000       291.74314       98542.125       13620.519       2.1700000       1.2360000      0.60125010       343.46600       2.2092222     0.011766203
       2280.0000       291.74692       98547.044       13623.701       2.3002500      0.90225010      0.33100000       343.28500       2.4392218     0.014769645
       2285.0000       291.78182       98548.086       13643.061       1.9045000       1.3107500      0.14400000       343.41700       2.6569745     0.011378641
       2290.0000       291.81200       98543.097       13665.414       3.5300000      0.84775010     -0.29900000       343.05100       2.7198028     0.011168792
       2295.0000       291.82517       98542.143       13668.580       3.0635000       1.6707500     -0.54300000       343.03000       3.3715523     0.011332409
       2300.0000       291.85909       98547.261       13693.603       2.4907500       1.2137500     -0.37375000       343.24100       2.6561037     0.013914109
       2305.0000       291.94705       98546.101       13772.822       2.9895000       1.2292500     0.017000000       343.16300       3.1081431     0.013491811
       2310.0000       291.97016       98543.923       13793.325       1.6722500      0.70450000     -0.39875000       343.40900       3.4546889     0.014438424
       2315.0000       291.94445       98552.515       13772.553       1.6102500       1.6292500     -0.56150000       343.26900       3.0718849     0.012778077
       2321.0000       291.95654       98559.666       13778.036       2.1740000      0.86975000     -0.32225000       343.42300       3.2690266     0.011706009
       2326.0000       291.95375       98556.367       13770.500       1.6052500      0.67275010     -0.19050000       343.45000       2.6434479     0.011952598
       2331.0000       291.94390       98553.401       13754.038       2.4275000     0.020000000      0.52800000       343.54100       2.4275032     0.011451639
       2336.0000       291.95683       98554.108       13743.355       2.6170000      0.74875000     -0.31700000       343.37700       2.2892506     0.012270120
       2341.0000       291.95073       98557.217       13737.375       1.9590000      0.92475000      0.27525000       343.64800       2.3017410     0.013107291
       2346.0000       291.90013       98556.585       13709.758       2.9682500      0.85025010     -0.56200000       342.99600       2.1652680     0.012444261
       2351.0000       291.88611       98553.583       13696.631       3.2870000       2.1715000    -0.055750000       343.22900       2.0360634     0.012349185
       2356.0000       291.88942       98556.363       13709.401       2.6260000       1.1250000      0.38300000       343.56100       2.0067432     0.013090862
       2361.0000       291.90587       98556.086       13709.927       2.5427500       1.9490000   -0.0012500000       343.20000       1.9592187     0.012752389
       2366.0000       291.95304       98544.649       13707.440       2.7315000      0.24475000    -0.065750000       343.20600       1.9351737     0.014960162
       2371.0000       291.95687       98542.487       13687.740       3.1252500       1.4107500     -0.20925000       343.24000       1.9685358     0.013419559
       2376.0000       291.99295       98550.261       13679.465       2.2747500       2.0442500      0.23675000       343.35100       1.9764328     0.011974792
       2381.0000       291.93702       98551.659       13631.887       2.7037500       1.8062500      -1.1202500       343.36500       1.9493101     0.013834541
       2386.0000       291.78639       98550.505       13538.503       2.6970000       1.8877500      0.23825000       343.42000       1.9420665     0.013562714
       2391.0000       291.69594       98550.607       13472.121       3.5012500       1.7295000     -0.56175010       342.94100       1.9761285    0.0096721481
       2396.0000       291.55881       98548.091       13388.221       2.5820000       1.7370000      0.19000000       343.37900       1.9332493     0.011495637
       2401.0000       291.49684       98551.388       13335.938       3.2010000      0.27900000     0.037250000       343.42100       1.9299724     0.012938585
       2406.0000       291.48944       98558.910       13292.497       2.0065000      0.74850000      0.73875000       343.42800       1.9387403     0.012516752
       2412.0000       291.49516       98563.745       13282.941       2.8912500      0.15525000     -0.10600000       343.19100       1.9280306     0.011996668
       2417.0000       291.54562       98573.782       13302.735       2.7025000       1.0747500     0.027750000       343.18200       1.9162607     0.011757189
       2422.0000       291.56599       98570.328       13332.389       3.1745000       1.1730000    0.0085000000       343.25500       1.9111498     0.013810240
       2427.0000       291.60258       98553.818       13402.175      0.93425010       1.3227500   -0.0057500000       343.68000       1.9132947     0.012306925
       2432.0000       291.61389       98553.503       13433.815       1.5330000       1.1055000     -0.16325000       343.49700       1.9095707     0.015334822
       2437.0000       291.60004       98557.865       13450.653       2.0750000       1.0225000     -0.12600000       343.37100       1.9375237     0.011551426
       2442.0000       291.60004       98551.195       13490.830       2.3552500       1.5322500     -0.21725000       343.40900       1.9285996     0.013290371
       2447.0000       291.59080       98543.611       13519.430       1.4092500       1.4037500   0.00075000000       343.59600       1.9049604     0.014350635
       2452.0000       291.60930       98546.337       13580.309       1.9032500       2.8317500      0.12550000       343.57000       1.9073811     0.013313038
       2457.0000       291.64582       98546.207       13697.917       3.5480000       1.9815000     -0.57375000       343.16500       1.9334042     0.012227067
       2462.0000       291.66561       98541.217       13732.125       1.5475000       1.1357500     0.052000000       343.31700       1.9136837     0.012997998
       2467.0000       291.69384       98544.814       13745.010       1.4207500       1.6450000      0.57475000       343.54200       1.9533703     0.010926619
       2472.0000       291.72401       98549.869       13749.900       2.1215000       1.4227500     -0.18075000       343.37600       1.9405632     0.011348214
       2477.0000       291.74583       98546.373       13704.979       1.6805000      0.44100000      0.46325000       343.75300       1.9314254     0.011815396
       2482.0000       291.76598       98541.310       13686.916       2.2390000      0.81100000    -0.082750010       343.58300       1.9223441     0.014062344
       2487.0000       291.79390       98543.984       13671.611       1.7250000      0.66475000     -0.14325000       343.43300       1.9501328     0.010741892
       2492.0000       291.82387       98548.986       13679.932       3.0645000      0.94775000     0.035500000       343.42300       1.9232410     0.012440876
       2498.0000       291.84372       98545.168       13695.663       2.3627500      0.50775000     0.046500000       343.34400       1.9394743     0.011975053
       2503.0000       291.88449       98540.181       13711.429       1.8610000      0.47200000    -0.050000000       343.13900       1.9350426     0.012288311
       2508.0000       291.96235       98545.872       13765.683       1.4837500       2.0397500     -0.36050000       343.07000       1.9528752     0.012555302
       2513.0000       291.96956       98550.910       13754.834       1.7842500       2.0067500     0.093000000       343.23100       1.9227715     0.013664596
       2518.0000       291.95617       98544.295       13703.735       2.0567500       1.6345000     -0.53300010       343.08300       1.8942271     0.013218510
       2523.0000       291.92957       98552.097       13706.353       1.0755000      0.68350010     -0.35900000       343.33300       1.9149893     0.012292760
       2528.0000       291.89942       98557.587       13695.070      0.44675000      0.69475000      0.25400000       343.55900       1.9353800     0.013083236
       2533.0000       291.85487       98547.736       13689.318       1.1152500      0.36550000      0.19750000       343.67500       1.9128643     0.013137976
       2538.0000       291.84383       98543.448       13698.931       1.3285000      0.65450000      0.23600000       343.65100       1.8921819     0.013601040
       2543.0000       291.85983       98548.866       13718.977       1.6650000      0.81425010      0.35825000       343.40600       1.9044198     0.012838697
       2548.0000       291.84976       98550.994       13712.730       1.9357500       1.3950000    -0.028250000       343.16000       1.8931499     0.014514075
       2553.0000       291.83969       98551.873       13701.131       1.8597500      0.79875000      0.19775000       343.41500       1.9051152     0.012208252
       2558.0000       291.85068       98550.577       13702.759       2.4280000      0.81600000      0.25125000       343.55900       1.9059516     0.014773570
       2563.0000       291.86064       98550.685       13697.179       2.3467500      0.34225000     0.094500010       343.28800       1.9054819     0.014056847
       2568.0000       291.84445       98550.907       13659.102       3.6387500      0.84200010     -0.46325000       343.08400       1.9237892     0.012244749
       2573.0000       291.88486       98542.683       13660.773       2.8222500      0.66125010     -0.14975000       343.35400       1.9176499     0.013034517
       2578.0000       291.90634       98543.189       13681.129       2.0007500       1.6682500     0.071500000       343.76600       1.8913956     0.014296236
