MIRICO/SHELL project - Processed LDS file generated on
Tue Jul 18 21:32:03 2017
Time stamp for record start
05/11/2017  15:22: 7.0000
Nb of points in the record
         511
Beam position index
       5.0000000
Beam angle (degrees)
       8.5290000
Open Path length (m)
       83.010000
****************** Temporal data record ************************
Elapsedtime_sec Temp_K Press_Pa Humidity_ppmv WindX_m/s WindY_m/s WindZ_m/s Speedofsound_m/s CH4vmr_ppmv CH4vmrerror_ppmv  
      0.00000000       292.71670       98561.948       13406.673      0.71450000       1.4247500      0.45475000       344.55900       1.8967338     0.015979442
       5.0000131       292.76473       98557.638       13411.500       2.2572500       1.1327500      0.22900000       343.62200       1.9312426     0.020810288
       9.9999860       292.82482       98559.732       13442.456       1.1980000       1.9390000     -0.12100000       343.32500       1.9183017     0.015146725
       14.999999       292.86400       98574.435       13493.801       1.5857500      0.68900000      0.24650000       344.76600       1.8769958     0.014496862
       20.000012       292.91747       98578.200       13532.137       2.1842500       2.1077500     -0.34025000       344.08100       1.8803569     0.019780896
       26.000020       293.04070       98579.606       13609.078       1.5190000       1.5545000     -0.18600000       344.97600       1.8927571     0.017303565
       30.999993       293.08829       98574.286       13652.606       2.2797500       2.2672500     -0.71450000       343.51400       1.9709968     0.012582259
       36.000006       293.11094       98553.283       13680.461       1.2012500       2.6255000     -0.43675000       343.06700       1.9350040     0.013297728
       41.000019       293.10822       98552.409       13690.277       1.4467500       1.5155000    -0.015250000       344.19800       1.8741151     0.014828860
       45.999992       293.03556       98558.396       13666.930       2.0017500       2.3870000   -0.0025000000       344.26200       1.9202799     0.017782155
       51.000005       293.04791       98560.552       13696.175       1.3882500      0.60800000      0.57350000       344.45100       1.9044210     0.019290396
       56.000018       293.06351       98579.041       13724.052       1.9695000       1.2200000      0.37850000       344.48900       1.9298278     0.011998260
       60.999991       293.12180       98577.755       13771.126       2.1010000       1.5855000      0.19150000       344.09900       1.9075809     0.022890365
       66.000004       293.27108       98553.241       13874.288       2.7450000    -0.013250000    -0.026000000       343.70500       1.8717363     0.015191523
       71.000017       293.35392       98552.372       13947.297       3.0725000      0.60825000    -0.053750000       344.10500       1.9239997     0.019407316
       75.999990       293.45174       98558.063       14028.239       2.6592500       1.1957500      0.16100000       343.99000       1.8961819     0.014686696
       81.000003       293.48249       98560.360       14059.877       1.3037500      0.71500000      0.48700000       345.87800       1.9310969     0.021350939
       86.000016       293.45665       98578.992       14091.101       2.2535000       2.6182500    -0.063000000       344.67700       1.8812096     0.017712414
       90.999989       293.45037       98577.609       14067.496       1.7572500       2.9910000     0.050250000       344.13700       1.8937960     0.020912651
       96.000002       293.42277       98553.208       13983.373       2.1762500       2.4192500      0.40125000       344.44300       1.8970332     0.018795822
       101.00002       293.37653       98552.321       13892.291      0.88325010       2.2765000     0.018250000       345.45700       1.9019392     0.018445200
       105.99999       293.31543       98560.515       13749.261      0.83800010       4.7507500     -0.16900000       343.46300       1.8836785     0.014336369
       111.00000       293.27573       98559.492       13656.465       1.8747500       1.6360000      0.85525010       345.84100       1.9612127     0.013503182
       117.00001       293.21207       98567.642       13552.210       2.8807500       2.4267500     -0.28750000       343.85000       1.9158077     0.019363961
       122.00002       293.15235       98566.167       13453.350       2.8525000       2.8762500    -0.059250000       343.37900       1.9239763     0.016241705
       127.00000       293.07200       98546.552       13329.118       2.6552500       2.0600000     -0.27725000       343.66800       1.8861311     0.015101442
       132.00001       293.10729       98548.886       13332.510       2.7255000       2.3117500     -0.32225000       343.42200       1.9531587     0.015594733
       137.00002       293.17838       98567.477       13373.613       1.6777500       2.8512500     -0.13975000       343.72300       1.9241960     0.017310315
       141.99999       293.23566       98565.942       13420.302       2.9892500       2.3745000     -0.30675000       344.34600       1.9453981     0.013273805
       147.00001       293.41280       98561.782       13589.550       1.9425000      0.91125010    -0.084250000       343.40100       1.9129398     0.017254586
       152.00002       293.45844       98559.114       13664.354       2.6612500       2.4715000     -0.40250000       343.21300       1.9875733    0.0099595422
       156.99999       293.39149       98541.943       13660.155       2.7947500       1.8580000     -0.29150000       343.32400       1.9568041     0.018458027
       162.00001       293.41024       98543.166       13726.717       2.9085000       1.6612500    -0.088750000       344.06800       1.8904669     0.015881552
       167.00002       293.43527       98562.598       13828.148       2.2087500       2.8387500      0.15950000       344.48000       1.9005719     0.016638073
       171.99999       293.47417       98562.069       13908.040       1.7015000       2.2052500     -0.83625010       343.71900       1.8689794     0.017335691
       177.00001       293.57517       98554.571       14033.877       3.6230000       3.0670000      0.40575000       343.68500       1.9204917     0.019928408
       182.00002       293.55002       98556.587       14028.131       3.6290000       1.8152500     -0.71825000       343.34500       1.9415063     0.016787752
       186.99999       293.47208       98553.389       13957.972       4.4172500      0.80175010    -0.082250010       343.88800       1.9616074     0.013747920
       192.00000       293.40477       98555.997       13894.868       2.9372500       1.5842500       1.0870000       344.62300       1.9121193     0.018819380
       197.00002       293.23486       98573.802       13722.219       3.4100000       3.9737500      0.20300000       344.25300       1.9322047     0.017508431
       202.99999       293.23020       98555.278       13717.278       2.4422500       1.6932500     0.037750000       343.30800       1.9543893     0.017433511
       208.00000       293.23763       98552.773       13705.510       3.7025000       2.2932500     -0.40075000       343.45900       1.8942224     0.015319282
       213.00001       293.26958       98555.185       13705.050       3.9942500       1.5817500     -0.58450000       344.60600       1.8876921     0.013593065
       217.99998       293.36232       98558.650       13748.382       3.2570000       3.2787500     -0.22500000       344.14200       1.8686072     0.015535939
       223.00000       293.36985       98561.977       13721.616       1.7572500       1.7295000      0.56575000       344.90100       1.8657016     0.017417748
       228.00001       293.34963       98579.494       13656.472       2.6177500       2.0115000      0.15300000       345.20400       1.9488013     0.018682634
       232.99998       293.37570       98556.865       13610.433       2.6467500       1.4462500    0.0022500000       344.30000       1.8870221     0.016496811
       238.00000       293.35744       98552.101       13588.829       1.7590000       1.5462500     0.056250000       345.13900       1.8792986     0.016256308
       243.00001       293.37006       98562.669       13638.329       3.3815000       2.6587500     0.016000000       344.06600       1.8625486     0.015574543
       248.00002       293.32535       98560.770       13639.639       2.6290000       2.4222500    -0.097000000       344.49300       1.8700037     0.018157833
       253.00000       293.23142       98557.649       13623.056       2.3395000      0.92900000     -0.29375000       345.54900       1.8892471     0.020508951
       258.00001       293.03307       98562.557       13587.271       3.8735000       2.0025000    -0.073750000       344.18200       1.9375961     0.019881068
       263.00002       292.97677       98560.049       13577.359       2.8105000       2.5027500     -0.66625010       344.59500       1.8995139     0.014818597
       267.99999       292.92668       98541.308       13549.103       3.2465000       1.9875000     -0.47425000       344.83500       1.8940042     0.016148379
       273.00001       292.98635       98563.808       13528.324       2.5897500       1.4525000      0.19950000       345.19500       1.8791431     0.014912117
       278.00002       293.04545       98568.521       13543.365       3.3842500       2.7705000     -0.94225010       343.41800       1.9009749     0.019472965
       282.99999       293.11621       98562.489       13566.723       3.3047500       2.6360000     -0.37250000       343.15500       1.9015181     0.013950939
       288.00001       293.19444       98561.799       13596.433       2.4985000       2.4045000     -0.37925000       344.19600       1.8983204     0.017541648
       294.00001       293.34828       98547.523       13678.343       2.8330000       1.5167500     -0.20575000       343.96900       1.8788989     0.021428514
       298.99999       293.42523       98542.031       13755.253       5.0497500       1.8075000     -0.14950000       343.60500       1.9037840     0.017842031
       304.00000       293.49494       98550.678       13849.991       4.5792500      0.82850000      0.48400000       343.92200       1.9190858     0.016379876
       309.00001       293.52081       98551.339       13917.396      0.92550000       2.9325000     0.064750000       343.86900       1.8826020     0.018273792
       313.99999       293.52241       98541.326       14052.196       2.8537500       1.8780000      0.82775000       344.37400       1.9013355     0.015002325
       319.00000       293.45720       98543.897       14064.692       1.6622500       4.3585000    -0.077250000       344.74500       1.8934996     0.017801551
       324.00001       293.28557       98559.273       13957.148       3.0385000       4.0742500     -0.90025000       343.87000       1.8936025     0.015367274
       328.99999       293.17468       98562.139       13880.042       4.4032500       5.6435000     -0.19225000       343.46900       1.8884713     0.018390602
       334.00000       293.00451       98566.358       13722.821       4.6870000       4.7627500     -0.36575000       343.05300       1.8911987     0.011643350
       339.00001       292.91045       98567.899       13615.739       3.6240000       2.8885000    0.0037500000       343.75800       1.8662764     0.018742075
       343.99998       292.90972       98548.937       13540.545       3.0775000       2.5332500      0.31050000       343.69700       1.8957980     0.017550798
       349.00000       292.89124       98546.841       13480.200       3.6725000       3.8400000     -0.25075000       343.49700       1.8409897     0.016527523
       354.00001       292.88613       98566.215       13411.299       3.1625000       3.8037500      0.46650000       344.04200       1.8389901     0.015760528
       358.99998       292.89762       98567.725       13394.339       1.5512500       2.0832500      0.88075010       344.04500       1.9011147     0.019226908
       364.00000       292.89238       98557.861       13409.635       3.7402500       3.2442500    -0.022500000       343.73500       1.8862904     0.016870116
       369.00001       292.94602       98559.908       13462.500       2.3440000       1.7407500      0.11325000       344.23500       1.8700570     0.016165433
       373.99998       293.07930       98559.133       13597.644       3.3857500       2.2617500      0.36425000       343.82100       1.9045034     0.014078317
       379.00000       293.16854       98558.520       13693.522       2.9620000       3.1802500    -0.053250000       343.81800       1.8689915     0.013992198
       385.00000       293.30949       98580.872       13818.405       2.0870000       2.7140000     0.050500000       344.02100       1.8941425     0.014428807
       390.00002       293.39152       98578.540       13923.951       2.4785000       2.0957500     -0.22500000       343.84800       1.8712013     0.014980865
       394.99999       293.41850       98544.243       13995.821       2.7640000       3.3580000     -0.42725000       343.80900       1.8674052     0.014577020
       400.00000       293.46846       98540.958       14105.800       2.0700000       5.2242500     -0.15525000       343.88600       1.8890698     0.015294544
       405.00002       293.53220       98547.001       14270.795       1.4082500       3.5827500     0.036000000       343.39000       1.8753392     0.014221210
       409.99999       293.56857       98549.434       14385.222       2.9515000       3.3902500      0.14250000       343.74300       1.9185069     0.020099141
       415.00000       293.60775       98576.043       14535.026       1.8390000       3.3627500     -0.55125000       343.77100       1.9106568     0.016792951
       420.00002       293.61059       98581.251       14581.667       2.7435000       4.5810000     -0.44125000       343.82000       1.9138630     0.019021465
       424.99999       293.58792       98559.220       14587.961       3.3590000       3.1070000      0.13100000       343.85400       1.8797305     0.016313456
       430.00000       293.54081       98557.714       14504.515       3.3920000       3.2087500     -0.33350000       343.83300       1.8959412     0.020586902
       435.00001       293.45774       98567.935       14287.605       4.5800000       2.8337500     -0.32550000       343.29100       1.9032428     0.016424933
       439.99999       293.37370       98565.212       14116.713       1.9387500       3.6160000      -1.0062500       343.40200       1.8684166     0.023621041
       445.00000       293.24773       98559.701       13867.725       3.0502500       3.4445000      -1.2550000       343.51100       1.8721339     0.016356367
       450.00001       293.16120       98560.790       13698.269       2.5297500       3.4425000     -0.56575000       343.61000       1.8512760     0.018251875
       454.99999       293.07052       98552.468       13572.648       3.9302500       2.8222500     -0.41950000       343.53800       1.8623042     0.017775435
       460.00000       293.01757       98553.279       13459.520       2.2890000      0.79500000      0.25425000       344.31300       1.8721567     0.020375837
       465.00001       293.01747       98580.372       13374.457       2.3957500      0.77800010      0.83800010       344.18200       1.9264225     0.017080798
       469.99999       292.98760       98578.870       13301.580       3.3527500    -0.094250000      0.28675000       344.32800       1.8458893     0.017220335
       475.99999       292.95818       98548.180       13227.301       4.5742500      0.46075000      0.10275000       343.92100       1.9228124     0.019629448
       481.00001       292.93827       98547.203       13202.608       2.9745000     -0.76575010      0.32100000       344.35800       1.8397431     0.012008412
       486.00002       292.92426       98549.069       13227.129       3.7960000      0.92025010      0.25250000       344.16700       1.8460557     0.015041289
       490.99999       292.87780       98548.090       13214.937       4.8250000      0.64550000     -0.20525000       343.83300       1.8731701     0.013217587
       496.00001       292.83806       98567.088       13219.771       4.6385000       1.2090000      0.51550000       344.05200       1.8226923     0.015058138
       501.00002       292.76518       98569.453       13202.628       3.7540000     -0.44900000      0.49925000       344.31200       1.8551787     0.016204849
       505.99999       292.62723       98547.015       13137.172       4.7575000      0.53625010      0.66875000       343.74100       1.8960185     0.018629097
       511.00000       292.54317       98547.633       13123.654       4.4822500      0.60000000     -0.16050000       343.50500       1.8719292     0.017073422
       516.00002       292.44796       98567.333       13114.660       3.3960000      0.88675000      0.17325000       343.40100       1.8568262     0.013005933
       520.99999       292.41691       98566.833       13151.393       3.7127500       1.3047500     -0.76750000       343.64600       1.8887051     0.013162120
       526.00000       292.45314       98560.107       13256.614       3.7342500     -0.24350000      0.17500000       343.92300       1.8555516     0.019025946
       531.00002       292.44306       98561.090       13298.176       4.1902500       1.7067500     -0.73575000       343.76900       1.8960837     0.013690963
       535.99999       292.44649       98553.474       13340.133       4.3870000       1.2635000     -0.55125000       343.20900       1.8780345     0.013818404
       541.00000       292.45691       98554.046       13382.009       4.6855000       2.2280000     -0.45350000       343.46000       1.8668291     0.014126984
       546.00002       292.45455       98573.591       13386.939       3.2177500       1.0845000      0.46275000       343.77100       1.8745189     0.013793403
       550.99999       292.44467       98572.940       13409.587       3.9487500       1.4277500     -0.29425000       343.74900       1.8913824     0.017517592
       556.00000       292.46861       98553.278       13472.923       3.3775000       1.3345000    -0.082000000       344.02600       1.8371274     0.016092641
       561.00001       292.44625       98553.862       13486.251       3.2800000      0.79100000      0.46675000       343.99100       1.8634872     0.014585478
       567.00002       292.36046       98561.495       13469.447       2.5807500      0.80700000      0.71725000       344.07600       1.8625970     0.014575592
       572.00000       292.31099       98558.687       13434.624       5.0367500       1.6945000     -0.39475000       343.50200       1.8683891     0.017041861
       577.00001       292.26186       98562.566       13376.198       4.5537500       1.3637500      0.17550000       343.34400       1.8636023     0.015672025
       582.00002       292.21161       98560.900       13316.510       4.1182500       2.2500000     -0.19925000       343.70200       1.8671958     0.013073849
       586.99999       292.16060       98542.190       13233.385       3.7090000       1.8830000     -0.73500000       343.52500       1.9081196     0.016922527
       592.00001       292.11049       98543.403       13161.460       2.9150000       1.6102500     -0.31050000       343.77000       1.8566517     0.015386335
       597.00002       292.05027       98558.962       13078.935       3.1337500      0.98475000    -0.030250000       343.86300       1.8510608     0.017022796
       601.99999       292.01899       98565.917       13029.118       4.4535000       1.9180000      -1.0795000       343.56400       1.8889050     0.019208352
       607.00001       291.98858       98575.566       12970.411       3.6687500       1.2287500      0.87625000       343.84400       1.8791308     0.014451403
       612.00002       291.99628       98579.827       12976.691       3.5055000      0.67550000      0.16375000       344.14900       1.8498889     0.014810003
       616.99999       292.04505       98583.245       13037.617       5.9792500       2.9300000      0.16925000       343.36900       1.8549455     0.011728455
       622.00001       292.06499       98578.572       13074.636       5.1092500       2.9470000     -0.16225000       343.36500       1.8695710     0.012616153
       627.00002       292.08508       98566.500       13130.303       3.7825000       2.5310000     -0.70850000       343.38300       1.8682893     0.014408604
       631.99999       292.13413       98560.515       13206.176       4.7625000       2.8420000     -0.24350000       343.36100       1.8702147     0.013859321
       637.00000       292.19345       98546.487       13288.586       3.1785000      0.88875000      0.57850000       343.64200       1.8795225     0.012664651
       642.00002       292.23337       98548.685       13366.994       3.2172500      0.87825010     0.047500000       343.61500       1.8908193     0.011444659
       646.99999       292.32452       98567.657       13506.415       3.4070000       1.5950000     -0.60075000       343.27400       1.9079132     0.013774458
       652.00000       292.30948       98566.103       13535.653       3.3475000       1.7287500     0.041250000       343.27300       1.9002073     0.014288967
       658.00001       292.20744       98559.905       13505.251       3.7807500       1.6662500     -0.34300000       343.28100       1.8921212     0.015358960
       662.99998       292.14710       98563.075       13458.184       2.6127500      0.87700000      0.27950000       343.77800       1.8872002     0.016793719
       668.00000       292.04508       98559.431       13349.628       4.3707500       1.4530000     0.045750000       343.25300       1.8981836     0.018657044
       673.00001       291.98594       98557.593       13285.263       3.0670000      0.83500000      0.43725000       343.57600       1.8861563     0.017185655
       677.99998       291.94976       98567.529       13222.203       2.9032500      0.98125000     -0.54650000       343.49500       1.8613448     0.019415701
       683.00000       291.86977       98550.261       13111.216       1.3475000       1.0492500      0.23575000       343.91800       1.8561891     0.015673729
       688.00001       291.83660       98546.319       13048.266       2.0772500       1.2827500     -0.35000000       343.75200       1.9053513     0.016639682
       692.99998       291.84512       98565.311       12991.431       3.9857500      0.94750010     -0.46375000       343.29600       1.9278688     0.018078823
       698.00000       291.84397       98567.741       12952.922       3.4915000       2.6835000     0.060250000       343.39600       2.0383252     0.015983087
       703.00001       291.85510       98565.240       12941.716       4.2030000       2.6842500     -0.34625000       343.41300       3.1144530     0.017675709
       708.00002       291.89966       98559.778       12982.874       2.7845000       1.2632500      0.38950000       343.69500       1.9403289     0.015428162
       713.00000       291.92960       98562.850       13003.253       1.6860000       1.2977500      0.54850000       343.85700       1.9228332     0.016169474
       718.00001       291.95545       98559.763       13029.046       3.7107500       1.5967500     -0.56950000       343.01600       1.8913019     0.015801639
       723.00002       291.92502       98565.207       13009.666       2.3675000       1.5757500     -0.26075000       343.67500       1.8824688     0.016615707
       727.99999       291.94360       98567.769       13039.630      0.92325000       2.1865000      0.32075000       344.02600       1.8770047     0.014663640
       733.00001       291.97484       98550.222       13087.929       3.9055000       1.3330000      -1.2295000       343.25500       1.8626521     0.016391590
       738.00002       291.99332       98546.613       13138.726       3.7557500       3.0927500     -0.35075000       342.83000       1.8884903     0.016864173
       742.99999       292.05480       98568.293       13253.814       3.1737500       3.1257500    -0.035750000       343.09400       2.0155559     0.018119241
       749.00000       292.11427       98568.353       13355.485       3.2407500       3.3610000     -0.52475010       342.95400       1.8893677     0.016703591
       754.00001       292.13340       98548.593       13433.276       3.0797500       2.1717500     -0.19250000       343.26600       2.1786948     0.020692120
       758.99999       292.15343       98548.935       13475.356       2.8582500       1.8085000     0.028250000       343.61900       2.0067493     0.017374702
       764.00000       292.18902       98550.886       13494.131       2.3412500     0.020500000      0.54750000       343.66200       2.0332506     0.017661338
       769.00001       292.20758       98548.130       13497.681       4.0630000       2.0510000     -0.38775000       343.35500       2.1258217     0.015016873
       773.99999       292.20020       98564.169       13454.487       1.9002500       1.2997500      0.96000000       343.92500       3.2766599     0.017365165
       779.00000       292.20032       98569.601       13423.554       2.8367500      0.92750010     -0.25725000       343.42800       2.4423286     0.020466732
       784.00001       292.20033       98550.405       13390.119       2.9735000       2.3047500      0.42000000       343.63000       2.0518374     0.018135704
       788.99999       292.20045       98547.058       13356.483       3.2332500       3.0597500      0.32275000       343.59400       1.8842976     0.020352396
       794.00000       292.21503       98561.411       13336.383       2.9525000       1.5025000     -0.31475000       343.69900       2.8566732     0.017428375
       799.00001       292.20370       98562.002       13289.675       2.4380000       1.4797500     -0.34775000       343.53200       1.8395056     0.016339542
       803.99998       292.13777       98552.416       13172.988       2.3182500       2.3527500     0.047750000       343.64800       1.8464937     0.014478436
       809.00000       292.14046       98554.740       13151.479       2.3410000       3.4472500     -0.17025000       343.41800       1.9022875     0.015776677
       814.00001       292.19372       98561.372       13189.990       2.8915000       3.2070000   0.00050000000       343.59300       1.8717382     0.014107771
       818.99998       292.20429       98560.457       13198.006       4.3762500       3.2795000    -0.083750000       343.46300       1.9088026     0.021495085
       824.00000       292.23305       98566.226       13256.585       2.8110000       3.2032500     -0.44975000       343.07500       1.8966148     0.016113683
       829.00001       292.26162       98567.669       13302.906       2.6705000       2.8262500     -0.45400000       343.01100       1.8924908     0.017772994
       835.00002       292.24317       98549.287       13302.843       1.6532500       4.0137500     -0.49350000       343.27400       1.8851690     0.021678547
       839.99999       292.24679       98547.116       13328.424       2.2980000       2.4725000      0.34075000       343.56100       1.8920329     0.018529270
       845.00000       292.26818       98561.816       13390.524       2.7472500       2.1275000     -0.23625000       343.31000       2.0194237     0.021321168
       850.00002       292.31212       98561.684       13442.775       1.1635000       1.0012500      0.72000000       343.97700       1.9167599     0.017024974
       854.99999       292.40129       98552.667       13523.394       2.0102500       1.4455000     0.082750010       343.86400       2.0362144     0.016309147
       860.00000       292.41374       98555.474       13535.781       1.2532500       2.0592500     0.013750000       343.14400       2.5925150     0.018642392
       865.00002       292.41302       98561.204       13503.385       2.8282500       1.5600000      0.15275000       343.54800       2.6898681     0.018716246
       869.99999       292.40562       98560.270       13495.832       2.6017500       1.6627500   -0.0052500000       343.48700       2.4470212     0.022872920
       875.00000       292.32296       98566.885       13450.385       2.1920000       2.1520000      0.18225000       343.98600       2.0038227     0.018099436
       880.00001       292.27719       98567.383       13417.475       1.4077500      0.75925000    -0.087000000       344.16800       2.4423512     0.022296802
       884.99999       292.26275       98549.065       13425.781       3.4887500       3.6785000     -0.45075000       343.30200       2.8165927     0.020518435
       890.00000       292.24274       98547.020       13402.232       2.3035000       1.6987500     -0.55700000       343.40000       3.8406293     0.027799580
       895.00001       292.21793       98561.724       13342.515       2.2282500       3.5785000     -0.27950000       343.61400       3.2508635     0.020704981
       899.99999       292.18761       98561.585       13296.232       1.7345000       1.0692500      0.53900000       343.81600       2.7184011     0.015449953
       905.00000       292.17424       98552.524       13254.532       1.9837500       2.0925000      0.57225000       344.12400       3.4115883     0.019081937
       910.00001       292.14059       98555.216       13210.134       3.1602500       3.7007500     -0.39675000       343.55700       1.9072154     0.018111135
       914.99999       292.07976       98562.249       13158.183       4.4245000       2.1780000     -0.21450000       343.50600       1.8938358     0.018394413
       920.00000       292.03039       98559.910       13113.815       2.7945000       1.0637500     -0.18175000       343.51900       1.9015465     0.016381920
       926.00001       291.94794       98559.821       13035.290       3.7302500       1.8965000      -1.5017500       343.55900       2.4048609     0.017113602
       931.00002       291.93044       98562.192       13038.594       2.7037500       2.0317500      0.55450000       343.53000       2.0709871     0.014487580
       935.99999       291.95383       98555.093       13092.035       3.5032500       1.4040000      0.29875000       343.76900       1.9469435     0.017222268
       941.00001       291.94397       98552.320       13118.093       3.7175000       1.2675000     -0.92725000       343.29900       2.4743790     0.017044927
       946.00002       291.94648       98562.763       13179.042       3.0290000       1.2992500    -0.065500010       343.60500       3.1217830     0.014648476
       950.99999       291.95695       98561.370       13228.432       2.0477500       1.3820000     -0.20150000       343.89500       2.3438693     0.014492542
       956.00000       291.94394       98542.897       13256.396       2.7952500      0.69650000     -0.50675000       343.99400       3.7913916     0.016679951
       961.00002       291.95022       98542.928       13284.747       3.8202500       1.2217500      0.76925000       343.78800       2.0450384     0.016693392
       965.99999       291.96531       98558.523       13318.645       3.7770000       1.4392500      -1.1242500       343.58100       2.0478823     0.017174051
       971.00000       292.02717       98555.032       13369.722       3.2900000      0.53250000     0.086500000       343.93900       3.0656105     0.015837531
       976.00002       292.12360       98543.535       13416.705       4.0375000       1.7192500      0.70575000       343.50000       3.1304759     0.023075423
       980.99999       292.18396       98545.754       13457.656       4.5442500       1.6652500    -0.086250010       343.64600       1.9236712     0.012701355
       986.00000       292.30768       98544.210       13538.482       3.2975000       2.5177500      -1.0530000       343.10600       1.9251850     0.016568486
       991.00002       292.33282       98544.160       13566.477       3.7110000       1.1695000      0.13850000       343.47900       1.9309938     0.013985577
       995.99999       292.27984       98559.239       13562.391       4.7435000       2.8155000     -0.20375000       343.04300       2.0109007     0.017759366
       1001.0000       292.22768       98565.378       13533.939       2.6977500       1.9042500     -0.74750010       343.13700       2.5041172     0.016446817
       1006.0000       292.09419       98558.957       13448.064       1.9300000       1.2682500      0.21475000       343.83600       1.9769422     0.017523403
       1011.0000       292.07350       98560.212       13432.177       2.5732500      0.94400010    -0.099000010       343.42700       2.5396787     0.017450560
       1017.0000       292.08552       98575.455       13418.971       2.8902500       2.3607500     -0.62350000       343.44600       2.7191859     0.017228606
       1022.0000       292.10245       98568.486       13412.613       2.2905000      0.40450000      0.68650000       343.73900       2.9834718     0.021071623
       1027.0000       292.19625       98542.979       13460.785       2.8500000     -0.40425000      0.35000000       343.77600       2.5836659     0.016557680
       1032.0000       292.23751       98542.371       13463.855       4.5170000      -1.2005000       1.0312500       343.47700       3.3421280     0.019391717
       1037.0000       292.24614       98544.817       13424.398       2.8717500       1.0595000      0.14050000       343.65600       3.0560229     0.019423125
       1042.0000       292.26635       98543.546       13424.293       5.3625000       1.3590000     -0.14050000       343.31300       3.2152556     0.019142883
       1047.0000       292.28512       98556.856       13434.852       3.2122500      0.27650000      0.27175000       343.50300       4.1931436     0.013990846
       1052.0000       292.33358       98558.397       13463.920       4.0757500       1.5252500     -0.42050000       343.28000       7.1281243     0.025983853
       1057.0000       292.37413       98544.182       13500.053       3.1602500      0.29100000    -0.051250000       343.61900       5.2686178     0.023310839
       1062.0000       292.45086       98542.891       13563.476       3.9885000     0.081250000      0.16675000       343.46100       4.2210444     0.019391582
       1067.0000       292.60650       98551.525       13665.989       4.0527500      0.46650000     -0.30625000       343.75300       3.6635082     0.016510587
       1072.0000       292.65017       98550.733       13739.343       2.4215000       1.4790000     -0.37500000       343.99400       3.1881101     0.018755533
       1077.0000       292.65965       98543.045       13835.035       3.0345000      0.50625000     -0.10625000       343.51000       3.9432557     0.020168811
       1082.0000       292.66235       98546.714       13873.044       2.5012500     -0.89225010       1.3332500       343.88200       5.0971978     0.026271660
       1087.0000       292.59660       98558.413       13878.614       2.5682500      0.76875000     0.075750000       344.15900       3.8391501     0.021134995
       1092.0000       292.58529       98553.962       13872.769       2.9557500      0.29250000     -0.16375000       343.53300       3.3393770     0.015446803
       1097.0000       292.59143       98543.611       13828.055       5.0705000     -0.91325000     -0.13000000       343.53800       3.4039691     0.025770108
       1102.0000       292.61035       98546.337       13805.494       2.6780000     -0.44050000      0.46425000       343.88600       2.8181234     0.017109687
       1108.0000       292.64391       98544.215       13768.662       4.8082500      0.34675000      0.28150000       343.15200       2.4398418     0.018746121
       1113.0000       292.68489       98543.495       13754.748       3.7412500     -0.40875000    -0.038000000       343.23800       3.9021737     0.016896267
       1118.0000       292.74921       98558.262       13742.958       4.0810000      0.27225000    -0.059750000       343.84500       6.4195134     0.020826593
       1123.0000       292.79978       98558.776       13757.091       2.0515000      0.69625000      0.31700000       344.74400       5.0559554     0.019678208
       1128.0000       292.84342       98542.295       13772.852       2.1680000      0.20000000      0.24150000       344.31500       3.8620374     0.019490120
       1133.0000       292.96093       98559.323       13932.958       2.9027500       1.6030000     -0.35350000       343.73600       3.5626913     0.017268096
       1138.0000       293.01463       98562.976       13997.869       3.4187500       2.5212500    -0.040250000       343.69700       3.2031931     0.015041908
       1143.0000       293.04023       98553.901       14033.376       3.3407500      0.53200000      0.38425000       343.98400       4.8444270     0.017778173
       1148.0000       293.06245       98554.793       14066.053       3.2215000      0.86900000      0.12250000       343.08000       2.9551052     0.015878079
       1153.0000       293.06008       98556.907       14064.909       1.9735000      0.61850010      0.33525000       343.47500       3.1811228     0.021449338
       1158.0000       292.99412       98556.639       13975.325       2.1272500      0.81475000    -0.080750000       343.23200       2.1285297     0.022506854
       1163.0000       292.98566       98549.448       13952.007       2.0410000       2.2817500     -0.10600000       343.64900       2.0030103     0.019212165
       1168.0000       292.99403       98544.071       13958.494       2.5290000       1.9742500      0.11000000       344.70900       1.9229233     0.018821399
       1173.0000       293.04544       98547.524       13956.783       3.3850000       2.9075000     -0.20375000       342.93700       1.9177248     0.017026978
       1178.0000       293.05703       98544.356       13932.847       2.2187500      0.74675010      0.68000000       344.02700       1.9179381     0.016303506
       1183.0000       293.02547       98549.504       13881.132       3.3370000      0.94925000    -0.049250000       342.94700       2.2958425     0.016289669
       1188.0000       293.04432       98556.708       13863.176       1.7112500      0.46675000      0.60950010       344.36400       3.6558424     0.018689045
       1193.0000       293.07508       98553.870       13835.743       2.4640000      0.22850000     -0.29325000       343.48300       2.6272758     0.017824493
       1199.0000       293.09884       98553.876       13827.402       2.4182500       1.1575000     -0.43100000       343.70400       3.2433646     0.022273057
       1204.0000       293.22501       98570.358       13910.660       1.3145000       1.5580000      0.63900010       344.57500       2.0373867     0.017428604
       1209.0000       293.22865       98573.715       13913.164       1.6277500       2.1292500       1.3772500       344.05400       2.1734556     0.015861083
       1214.0000       293.09854       98560.633       13855.439       2.1632500       1.7335000      0.20400000       343.89200       2.4389981     0.018118116
       1219.0000       293.03851       98558.865       13827.270       3.7540000       3.8305000     -0.33325000       344.49600       2.6391687     0.016592460
       1224.0000       292.90127       98566.175       13732.847       2.6515000       1.2167500     -0.59375000       344.29000       4.5619922     0.016983030
       1229.0000       292.86650       98560.894       13714.614       2.0690000     0.019250000      0.35025000       345.18500       2.1271745     0.019985474
       1234.0000       292.95402       98544.087       13773.592       2.1227500      0.57050000     -0.54875000       345.12700       2.3338447     0.017203698
       1239.0000       293.00486       98543.424       13815.698       1.2810000     -0.15350000      0.51850000       344.40900       2.6135486     0.021251866
       1244.0000       293.11390       98546.113       13903.121       3.9992500    -0.061000000     0.049750000       343.57700       3.1027051     0.018328550
       1249.0000       293.17086       98543.389       13959.262       3.2330000     -0.17800000     -0.36725000       344.15100       4.2183321     0.018905598
       1254.0000       293.18974       98550.890       14000.701       2.8910000      0.58150010     -0.14375000       344.12000       3.2965568     0.019317015
       1259.0000       293.20861       98557.751       14033.536       3.0935000       1.0127500     -0.41625000       344.68200       3.9973546     0.020746525
       1264.0000       293.18584       98556.292       14031.636       3.4872500       1.8857500     -0.66975000       343.90200       3.7512531     0.023235251
       1269.0000       293.19702       98554.391       14061.426       2.4252500      0.93925010     -0.38525000       344.45400       3.9826536     0.019003053
       1274.0000       293.23424       98562.106       14112.093       3.1705000       1.8735000     0.087250000       343.86400       2.2356306     0.019833677
       1279.0000       293.25400       98562.545       14146.591       2.3480000       1.5715000     0.060750000       344.07400       2.0896648     0.016871033
       1284.0000       293.30426       98544.561       14232.584       2.3975000       2.4237500      0.27100000       343.49100       3.1969839     0.024180427
       1290.0000       293.31036       98542.430       14239.947       4.1382500       1.3022500     -0.34100000       343.89300       3.4917414     0.017717272
       1295.0000       293.27612       98558.561       14181.356       4.4807500       1.4360000     -0.33750000       344.04100       2.5930103     0.019617827
       1300.0000       293.24212       98556.012       14128.951       3.7805000     -0.69925000     -0.34725000       344.05300       2.9760727     0.018114084
       1305.0000       293.16766       98543.547       14001.124       3.4217500      0.12550000     -0.36150000       344.24500       3.2946117     0.015577199
       1310.0000       293.13113       98545.443       13949.714       3.3480000      0.99500010    -0.087500010       344.08900       3.0180541     0.021133081
       1315.0000       293.13062       98548.467       13972.248       3.5870000      0.74175010     -0.11650000       343.28400       4.2933323     0.017733173
       1320.0000       293.08695       98543.485       13923.265       2.7287500     -0.34225000     -0.71875010       343.63600       4.5263377     0.017542256
       1325.0000       293.01061       98542.269       13834.394       4.1572500      0.40925000     -0.27125000       343.71300       6.6274013     0.026987052
       1330.0000       292.98456       98547.228       13809.557       2.7595000     -0.38275000    -0.049750000       344.52100       4.3981955     0.018424099
       1335.0000       292.94714       98545.358       13752.837       4.8585000      0.18475000     0.017000000       343.41200       3.2766017     0.020475585
       1340.0000       292.93502       98543.159       13751.759       2.9970000      0.30875000      0.18925000       343.92500       2.6289413     0.014970235
       1345.0000       292.98174       98556.274       13846.175       3.2195000     -0.33250000     0.095750000       344.04500       2.1804205     0.011722718
       1350.0000       293.01195       98558.442       13908.692       3.4460000       1.2507500      0.13375000       343.48600       2.0625945     0.014291620
       1355.0000       293.02587       98537.844       13970.156       2.5247500     -0.32250000    -0.019000000       344.31000       2.3289187     0.015341384
       1360.0000       293.05976       98537.063       14026.653       2.6747500     -0.46425000     -0.16650000       344.11000       3.3548775     0.017039282
       1365.0000       293.13357       98555.648       14091.449       2.1422500      -1.9830000     -0.86775000       343.63500       3.7103477     0.019837409
       1370.0000       293.16936       98557.457       14151.430       1.7590000     -0.94650010      0.89775000       344.82000       3.9713166     0.016350056
       1376.0000       293.21054       98554.135       14219.504       3.5632500      0.86700000     -0.32325000       343.47500       3.2126060     0.015076198
       1381.0000       293.20831       98557.142       14257.067       4.5612500    -0.094750000      0.25650000       343.56400       3.1153077     0.015143834
       1386.0000       293.15894       98558.847       14291.052       5.1075000       1.0705000     -0.25850000       343.18500       3.6687700     0.013815484
       1391.0000       293.13877       98552.621       14314.167       4.4225000      0.29575000       1.0897500       343.73200       3.3494067     0.015940785
       1396.0000       293.12290       98543.436       14325.927       3.7552500       1.0155000     -0.15550000       343.34900       2.8083964     0.021947774
       1401.0000       293.07616       98545.755       14309.920       3.5430000      0.58250000      0.87925000       343.87500       2.8897468     0.014355347
       1406.0000       293.02569       98547.490       14281.920       3.2380000     -0.41700000     -0.10900000       344.31200       2.4913207     0.015464601
       1411.0000       292.96949       98542.507       14241.425       4.4782500      0.29925000    -0.011250000       343.55300       2.7739008     0.018577726
       1416.0000       292.87044       98545.611       14163.277       2.8700000     -0.60550000     -0.59150000       343.98300       2.9347555     0.015750238
       1421.0000       292.80705       98547.369       14100.687       2.5132500      -1.7630000    -0.090500000       343.32800       2.7356889     0.016148975
       1426.0000       292.77102       98533.017       14046.680       3.0750000      -1.1410000      0.25625000       343.23100       2.4699545     0.014460815
       1431.0000       292.72076       98532.246       13977.829       3.1027500      -1.0747500      0.21950000       343.55000       2.2996505     0.017761683
       1436.0000       292.64812       98550.155       13870.324       4.1477500      -1.2105000      0.16600000       343.73600       2.0864419     0.015189294
       1441.0000       292.63080       98554.381       13833.852       3.1105000      -1.1825000     -0.36225000       343.32500       1.8980611     0.013755645
       1446.0000       292.65461       98548.120       13824.425       4.1315000      -1.2270000    -0.050500000       343.52800       1.8881591     0.016016734
       1451.0000       292.64463       98551.367       13820.737       3.1987500      -1.0445000     -0.15525000       343.39500       4.8500160     0.017245708
       1456.0000       292.64558       98561.941       13854.212       3.1390000     -0.10450000      0.29200000       343.71300       2.3789233     0.014718756
       1461.0000       292.65524       98560.993       13896.902       2.0435000      0.44000000    -0.046500000       343.65200       2.9876002     0.016849745
       1467.0000       292.65148       98554.587       13969.604       2.7442500      0.23300000      0.33700000       343.63200       5.5567436     0.025093368
       1472.0000       292.64123       98556.459       13994.108       2.0862500     -0.72675000     -0.20925000       343.42100       3.5532588     0.017048512
       1477.0000       292.64838       98557.801       14023.755       2.0872500     -0.80650000    -0.069250000       343.47200       3.8328830     0.014334907
       1482.0000       292.65819       98551.077       14062.186       2.3952500      -1.3840000      0.14625000       343.28100       3.2960907     0.021743924
       1487.0000       292.65141       98543.700       14076.491       2.3877500     -0.58425000     -0.15000000       343.46600       3.1832830     0.023015562
       1492.0000       292.64093       98546.518       14088.153       2.4517500      0.40600000     0.014500000       344.05200       2.8969475     0.017585106
       1497.0000       292.65640       98546.501       14131.637       2.6345000     -0.17275000      0.36150000       343.88300       2.9606114     0.016917527
       1502.0000       292.64781       98541.498       14141.951       2.6347500      0.92425010     -0.36300000       343.87400       2.8463980     0.016541874
       1507.0000       292.59655       98544.226       14104.812       4.0310000      0.77000000     -0.14575000       344.13400       3.3709627     0.019655744
       1512.0000       292.58520       98549.144       14096.942       4.4900000       1.3307500     -0.58200000       343.33200       4.2700144     0.016974915
       1517.0000       292.60912       98544.163       14120.372       4.0330000      0.97475000     -0.84700010       343.93800       3.5799435     0.013128593
       1522.0000       292.58986       98543.015       14092.262       3.1460000     -0.62700000     -0.92000000       344.04700       3.1814354     0.014507437
       1527.0000       292.56302       98556.845       14045.354       2.1845000     -0.32925000      0.40775000       344.33300       4.2437350     0.018732570
       1532.0000       292.52433       98558.384       13981.049       3.3852500      0.26900000      0.48775000       343.99600       3.6970995     0.017794045
       1537.0000       292.44944       98543.957       13875.079       3.5285000      0.62700000      0.24175000       344.61600       5.1740141     0.025806272
       1542.0000       292.41791       98542.542       13810.694       4.5245000      0.60850000     0.054750000       344.04200       3.5149591     0.016287119
       1547.0000       292.38769       98551.505       13730.737       4.9777500      0.63400000     -0.53500000       343.74400       3.4534498     0.014383400
       1552.0000       292.39518       98550.735       13713.155       4.0520000       1.6260000     -0.39950000       344.08700       3.6669784     0.020546055
       1558.0000       292.45022       98543.480       13745.686       3.7700000      -1.0650000    -0.095250000       343.63900       5.0046964     0.024719855
       1563.0000       292.47005       98547.768       13760.991       3.4080000      0.18775000      0.67925010       343.91700       4.4273025     0.020850632
       1568.0000       292.51304       98554.378       13812.948       3.7360000      0.78650000     -0.42025000       343.75400       3.7674991     0.014437823
       1573.0000       292.50020       98559.532       13815.834       3.0400000       1.5482500      0.36200000       343.88400       2.2085917     0.014515929
       1578.0000       292.45014       98571.998       13791.208       2.3907500       3.5635000      0.85250000       344.27100       2.7295836     0.013039543
       1583.0000       292.41531       98577.772       13800.571       3.2605000       2.0335000      0.41500000       344.47900       3.2816593     0.016993458
       1588.0000       292.39381       98573.525       13806.643       3.1897500       1.5197500      0.24900000       344.26500       2.9432867     0.017845319
       1593.0000       292.41476       98547.645       13867.045       3.6377500       1.7152500     -0.54025000       344.27800       3.0770912     0.014693522
       1598.0000       292.40596       98542.078       13864.653       4.1482500       1.9455000     -0.27575000       343.67300       3.8044058     0.012983076
       1603.0000       292.38487       98542.663       13827.733       3.7775000       1.0787500     -0.39750000       343.77800       4.8996632     0.019382511
       1608.0000       292.35110       98545.041       13750.595       4.4295000       1.5532500     -0.25100000       343.08700       3.3721665     0.013894566
       1613.0000       292.33104       98540.112       13700.397       3.6707500       1.4240000     -0.43800000       343.50100       3.0771979     0.012762976
       1618.0000       292.29984       98545.251       13618.325       3.2787500      0.89950010      0.28250000       343.64300       4.1946660     0.016803584
       1623.0000       292.25461       98547.524       13551.408       3.7610000      0.13925000     -0.56600000       343.21600       3.4835140     0.014904444
       1628.0000       292.24302       98544.356       13514.043       3.7002500       1.8930000      0.57025000       343.75100       3.1921997     0.015531455
       1633.0000       292.24491       98552.460       13473.505       4.4120000       2.1167500      0.51200000       343.22700       3.0605598     0.020061431
       1638.0000       292.24387       98557.873       13450.308       5.3965000       3.3427500      0.16950000       343.24900       3.0143367     0.015014306
       1643.0000       292.25475       98549.303       13447.011       4.4367500       3.1375000     -0.60425000       343.37000       2.1971188     0.014225617
       1649.0000       292.30226       98543.322       13490.938       4.9255000       1.8497500     -0.50075000       343.48800       2.0630181     0.015433933
       1654.0000       292.38101       98546.049       13582.062       4.3347500       2.5870000     -0.43050000       343.70200       1.9841675     0.013328457
       1659.0000       292.40976       98545.975       13635.624       3.0550000       1.5200000      0.11900000       343.79800       2.7838492     0.017160043
       1664.0000       292.43158       98540.027       13700.446       4.7960000       2.4912500     -0.34925000       343.31700       2.7497247     0.012061385
       1669.0000       292.46085       98539.331       13768.489       6.2652500       2.2767500      0.16800000       343.55400       2.2131065     0.011704625
       1674.0000       292.47231       98543.675       13837.396       3.3702500       1.6297500       1.6992500       344.01400       1.9082825     0.011280397
       1679.0000       292.45128       98545.711       13857.987       5.3032500     0.016750000      0.49950000       343.48800       1.8919021     0.011267273
       1684.0000       292.46497       98546.474       13903.144       4.1997500       2.4822500     -0.43050000       343.11900       2.1918703     0.012289093
       1689.0000       292.41045       98550.553       13876.715       2.3210000       1.4425000     -0.27475000       343.68800       1.9920541     0.011861093
       1694.0000       292.22008       98561.507       13722.830       6.6290000       1.2747500      0.46425000       343.34600       2.2945984     0.013249476
       1699.0000       292.12311       98562.136       13632.614       3.5642500      0.64675000      0.13025000       343.76400       2.3224658     0.013764133
       1704.0000       292.01656       98553.716       13525.288       4.7120000      0.61400000      0.38025000       343.68300       1.9028233     0.011648043
       1709.0000       291.97162       98554.846       13452.999       2.0117500       1.3600000      0.48100000       343.92100       2.5398275     0.013812095
       1714.0000       292.04848       98557.765       13440.525       3.9375000       2.6820000     -0.68275000       343.67600       1.9318000     0.014288891
       1719.0000       292.05740       98554.792       13398.620       3.2270000       2.7905000     -0.60275000       343.42600       1.8750335     0.014027629
       1724.0000       292.05620       98553.047       13344.032       4.3800000       3.4947500     -0.47925000       343.28200       1.9075897     0.012895615
       1729.0000       292.05465       98556.030       13305.493       3.9987500       2.4705000     -0.36725000       343.13200       1.8935057     0.018226489
       1734.0000       292.02379       98560.586       13256.755       3.6042500       2.7465000     -0.16900000       343.21200       2.0016017     0.015759994
       1740.0000       291.98796       98554.081       13222.757       2.9637500       2.2355000     0.078750010       343.53700       1.8891087     0.015316959
       1745.0000       291.96271       98543.378       13212.356       2.0280000       2.4570000      0.51875000       343.73100       1.9227368     0.017911892
       1750.0000       291.94258       98545.092       13217.766       3.5037500       1.3035000     -0.40275000       343.41100       1.9135697     0.014392078
       1755.0000       291.89341       98546.025       13229.431       1.5500000       1.0160000     -0.15175000       343.50000       2.0637503     0.017975148
       1760.0000       291.89107       98543.754       13266.312       2.4955000       1.8377500      0.32700000       343.24900       2.0256088     0.013626208
       1765.0000       291.95148       98552.509       13358.941       3.5292500       1.6750000     -0.47050000       343.44200       2.6060826     0.014921811
       1770.0000       291.95802       98558.870       13401.400       3.1267500      0.22175000      0.53800000       343.53500       1.9318487     0.015639197
       1775.0000       291.94429       98557.194       13417.807       4.5105000       3.6100000     0.053750000       343.14800       1.8935347     0.015104125
       1780.0000       291.95425       98554.249       13463.432       2.5662500       2.5777500      0.31850000       343.51600       2.1386016     0.014654139
       1785.0000       291.96917       98557.811       13523.383       3.6162500       3.6967500     -0.68250000       343.02500       1.9083885     0.014604374
       1790.0000       291.94525       98556.693       13535.270       3.3410000       2.2442500     -0.20475000       343.20100       1.8911655     0.013686920
       1795.0000       291.90647       98538.011       13550.715       3.4862500       1.9927500     -0.50250000       343.50800       1.8754895     0.015920872
       1800.0000       291.89695       98537.266       13549.343       2.2572500       1.7062500     0.081250000       343.59500       2.2113565     0.016692517
       1805.0000       291.83506       98551.929       13464.693       2.2290000       1.5327500     -0.20000000       343.39300       2.0884115     0.018281915
       1810.0000       291.83590       98557.968       13444.041       2.0915000       2.1647500     -0.57950000       343.61500       1.8905396     0.015941320
       1815.0000       291.92074       98571.466       13459.410       2.4440000       2.2552500     -0.44375000       343.16500       1.9929876     0.015130295
       1820.0000       291.97040       98573.516       13481.167       1.4220000       1.6372500      0.30450000       343.67900       2.1442001     0.016146629
       1825.0000       292.04573       98564.055       13551.879       1.4285000       1.0110000      0.15525000       343.55400       1.9416811     0.014512270
       1831.0000       292.06962       98557.570       13566.494       1.5382500       1.5772500      0.21625000       343.51600       2.0639967     0.018453858
       1836.0000       292.04642       98542.988       13557.394       1.7450000      0.33750000      0.29050000       343.46800       2.3257426     0.017164750
       1841.0000       292.05627       98543.221       13560.618       2.3925000      0.18175000      0.17775000       343.48900       2.5271729     0.019892134
       1846.0000       292.05377       98555.278       13536.825       2.3430000      0.38850000      0.55450000       343.84500       2.2708085     0.017430221
       1851.0000       292.04336       98556.681       13519.978       2.3435000       2.1150000     -0.25850000       343.45400       1.8908210     0.016695832
       1856.0000       292.05689       98559.376       13525.536       3.4647500       2.4835000    -0.094750000       343.16400       1.8805680     0.017561514
       1861.0000       292.05079       98562.797       13516.660       3.8802500       2.2397500    -0.021000000       343.60600       1.8762778     0.017094269
       1866.0000       292.01204       98562.420       13489.177       3.8232500       2.6205000     -0.85925010       343.11600       1.9287575     0.019006361
       1871.0000       291.98229       98558.914       13460.619       2.2425000       1.9775000      0.17650000       343.47400       1.8930967     0.015728829
       1876.0000       291.94719       98554.300       13417.878       2.9935000       3.0965000     -0.39825000       343.39200       1.8766676     0.016873916
       1881.0000       291.94360       98555.937       13417.512       2.2675000       1.4095000      0.32275000       343.46900       1.9412228     0.014699691
       1886.0000       291.95418       98558.748       13429.522       2.9942500       1.3895000     -0.66600000       343.49900       1.8840818     0.017426114
       1891.0000       291.94395       98552.440       13435.060       3.2827500       2.6790000      0.19325000       343.34700       1.8715828     0.014391868
       1896.0000       291.95686       98543.204       13484.075       3.9192500       3.6110000     -0.78300010       343.01700       2.0744390     0.014212587
       1901.0000       291.95072       98545.460       13493.859       3.7255000       2.7475000      0.41575000       343.34700       2.3460375     0.015226459
       1906.0000       291.90048       98547.488       13466.142       3.6827500       3.2432500     -0.44875000       343.01000       1.8855498     0.016200448
       1911.0000       291.88690       98542.657       13454.024       4.1972500       1.2305000      0.80775000       343.33900       1.8938525     0.014621407
       1916.0000       291.91153       98543.251       13452.443       2.1505000       3.3132500      0.29800000       343.38200       1.9153140     0.016156336
       1922.0000       291.89097       98549.207       13423.375       2.9480000       4.0360000     -0.58200000       343.20100       1.8992652     0.015449169
       1927.0000       291.85547       98546.331       13379.033       2.0585000       2.5895000     -0.97275010       343.33900       1.9108872     0.017021377
       1932.0000       291.83541       98541.487       13353.444       3.0852500       3.2682500     -0.15375000       343.30300       1.9091548     0.018433423
       1937.0000       291.79754       98543.237       13315.356       3.0477500       3.2717500      0.21350000       343.30800       1.8824803     0.014817628
       1942.0000       291.78621       98550.253       13308.779       3.6222500       2.0927500     -0.26525000       343.25000       1.8762728     0.017617941
       1947.0000       291.79993       98551.999       13322.131       4.6677500       3.3892500     0.023500000       343.11000       1.9000491     0.015103039
       1952.0000       291.79993       98547.132       13341.699       3.8935000       2.9262500     -0.51125000       343.01000       1.8988973     0.013853853
       1957.0000       291.80884       98549.127       13391.030       4.2940000       2.7375000     -0.38300000       343.16000       2.0388401     0.016833351
       1962.0000       291.79014       98555.099       13396.834       1.6677500       2.4487500      0.63125000       343.48000       2.2875241     0.016697501
       1967.0000       291.75477       98551.297       13387.590       3.3035000       1.5022500      0.11300000       343.50900       2.6500995     0.017546361
       1972.0000       291.73458       98545.387       13395.908       2.7400000       1.4787500     -0.94625000       342.99300       2.5090977     0.017405057
       1977.0000       291.69716       98548.971       13386.811       2.0285000       3.0422500    -0.047000000       343.39500       1.9257838     0.017392017
       1982.0000       291.68579       98555.075       13392.225       4.1700000       1.3465000      0.58600000       343.14800       1.8944747     0.012847440
       1987.0000       291.69116       98551.602       13417.035       2.6950000       1.3175000      0.47000000       343.22000       2.4968574     0.014558856
       1992.0000       291.70987       98545.591       13445.545       2.7562500      0.95400010     -0.26925000       343.35400       2.6326891     0.015763557
       1997.0000       291.75530       98550.095       13482.008       3.7715000       1.3352500     -0.57450000       342.90700       3.5100974     0.022551624
       2002.0000       291.75634       98554.201       13486.762       5.1010000       1.5470000     0.023250000       343.10200       2.7452747     0.016108409
       2008.0000       291.75030       98544.960       13489.007       4.1612500       1.4607500     -0.66375010       343.22800       3.5148654     0.020046263
       2013.0000       291.76045       98539.222       13509.833       3.0527500       1.0175000     -0.21350000       343.38800       2.7743403     0.015649224
       2018.0000       291.74976       98544.637       13514.939       3.3162500      0.87600000     -0.91625010       343.31000       2.3512239     0.017472483
       2023.0000       291.73992       98551.622       13504.973       2.9752500       1.8887500      0.35625000       343.32200       1.9134077     0.016739225
       2028.0000       291.74362       98549.612       13506.376       3.1282500       2.2890000     -0.38375000       343.00300       1.9532851     0.015064041
       2033.0000       291.79085       98554.622       13547.583       2.9577500       2.3062500     -0.46375000       343.03500       4.1919144     0.021301470
       2038.0000       291.80130       98562.062       13553.030       2.1617500       1.3097500      0.17625000       343.45900       3.0260355     0.018734630
       2043.0000       291.82514       98562.868       13583.646       1.5247500       1.2815000     0.049750000       343.54600       2.2244054     0.017179332
       2048.0000       291.85590       98556.074       13616.117       1.8460000      0.90475000      0.55425000       343.60900       2.8848448     0.017292079
       2053.0000       291.87431       98548.044       13632.611       2.9917500      0.60225000      0.35050000       343.39800       3.5373312     0.021498872
       2058.0000       291.84943       98544.277       13596.757       2.2757500       1.1990000    -0.012000000       343.36500       3.2894727     0.017591424
       2063.0000       291.83948       98547.478       13585.818       2.2472500      0.96475010    -0.095750000       343.40500       2.8726032     0.018766928
       2068.0000       291.86176       98544.012       13604.857       2.7652500       1.8395000     -0.40950000       343.21900       2.3591841     0.018841553
       2073.0000       291.79899       98549.133       13574.643       3.8992500       1.3110000      0.39025000       343.26200       2.3987635     0.018670481
       2078.0000       291.74857       98556.370       13543.854       1.8712500       1.4705000      0.23225000       343.48100       3.1917769     0.024487208
       2083.0000       291.68467       98558.224       13518.466       2.7470000       1.9150000      0.20650000       343.55500       3.3972490     0.018009331
       2088.0000       291.64401       98555.225       13494.033       1.2042500       1.4085000      0.18200000       343.73100       2.4538278     0.019448863
       2093.0000       291.59976       98552.338       13442.987       2.1057500       1.0810000     -0.19525000       343.51200       2.0929213     0.018016761
       2099.0000       291.58748       98555.938       13416.253       2.8375000       1.9437500       1.7642500       343.33400       2.1283909     0.019490539
       2104.0000       291.63378       98557.560       13426.581       4.4045000       2.4197500     -0.74475000       343.34100       4.2095818     0.024063514
       2109.0000       291.65412       98554.533       13424.660       2.7652500      0.50125000      0.35325000       343.52700       2.7980776     0.019151590
       2114.0000       291.67566       98552.814       13422.646       3.2800000     -0.11300000      0.60975000       343.56600       3.1373366     0.017063054
       2119.0000       291.70583       98555.858       13435.058       2.7685000       1.1000000     0.023250000       343.47300       2.1718462     0.020984624
       2124.0000       291.74868       98557.853       13460.818       3.7110000       2.1875000     -0.50475000       342.94400       2.1620235     0.016132088
       2129.0000       291.75795       98554.918       13469.826       4.0090000       1.2450000     -0.42575000       343.43600       2.0215710     0.014507723
       2134.0000       291.75631       98552.991       13481.056       1.9762500       1.7127500    0.0060000000       343.49100       1.9415833     0.018209324
       2139.0000       291.75497       98555.975       13493.369       2.2065000       1.0755000      0.14775000       343.45500       2.8418811     0.020866592
       2144.0000       291.72447       98557.535       13502.777       2.5570000       2.0495000     -0.90275000       343.22700       1.9239150     0.015726857
       2149.0000       291.69451       98554.509       13492.184       2.9340000       1.7467500     -0.49575000       343.05100       2.0508903     0.019086067
       2154.0000       291.63783       98552.872       13447.925       2.8387500       1.5820000    -0.043250000       343.31200       2.1766433     0.016937943
       2159.0000       291.64049       98555.970       13453.689       2.3582500      0.92825000     0.069500010       343.42700       1.9152110     0.015965930
       2164.0000       291.69321       98557.861       13489.639       3.3462500       1.3777500     -0.65500000       343.13800       2.4571032     0.018763921
       2169.0000       291.70340       98554.910       13492.080       3.4245000       1.5082500     -0.51575010       343.30400       3.5507179     0.020827224
       2174.0000       291.74729       98552.922       13530.122       1.7360000      0.88350000      0.14950000       343.61400       2.4985194     0.021022662
       2179.0000       291.76462       98555.923       13535.115       2.4277500       1.2157500    -0.011500000       343.38300       3.1351411     0.018490616
       2184.0000       291.72425       98560.549       13478.520       1.9637500       1.9677500     -0.79850010       343.22100       2.2894783     0.017805701
       2190.0000       291.68855       98553.973       13430.377       1.8222500       1.2012500    -0.044000000       343.47300       3.6804367     0.017986441
       2195.0000       291.64929       98543.511       13382.209       3.1080000      0.55425000      0.18100000       343.20800       2.2937682     0.019193947
       2200.0000       291.64292       98545.244       13358.771       3.6127500       1.8972500     -0.29225000       343.04100       3.1728673     0.018669769
       2205.0000       291.64341       98548.312       13335.981       2.8637500       1.1545000      0.27900000       343.40700       1.9096860     0.016093184
       2210.0000       291.64713       98543.238       13330.350       2.1305000       1.4482500      0.17250000       343.41400       1.9211728     0.016334368
       2215.0000       291.69534       98542.071       13362.735       3.2630000      0.12775000      0.55175000       343.45500       2.3590987     0.021668991
       2220.0000       291.71199       98547.014       13376.345       3.0750000      0.97950010     -0.47275000       343.14100       3.1663964     0.020209499
       2225.0000       291.68720       98548.135       13376.732       2.7190000      0.84550010      0.12025000       343.36800       3.6827115     0.022187948
       2230.0000       291.70091       98543.116       13397.080       2.8395000      0.42950000      0.23100000       343.49500       3.2410619     0.017868177
       2235.0000       291.75084       98542.461       13436.498       3.9282500      0.28750000    -0.076250000       343.13100       4.6233852     0.026682282
       2240.0000       291.75706       98547.431       13454.066       4.4477500       1.3620000      0.57000010       343.45000       4.8253410     0.019221613
       2245.0000       291.74440       98548.272       13454.426       3.6550000       1.1162500     0.027500000       343.00900       2.9922390     0.019945915
       2250.0000       291.75486       98543.197       13489.956       2.9905000       1.8355000     -0.24300000       343.25100       2.5001801     0.017671911
       2255.0000       291.75601       98542.049       13546.778       3.0832500       1.0172500      0.11950000       343.46600       2.2383643     0.016093556
       2260.0000       291.74593       98547.014       13569.448       2.1285000      0.16900000      0.18250000       343.44700       2.3695800     0.020006276
       2265.0000       291.74408       98548.127       13600.705       2.2207500      0.97325000      0.43000000       343.58100       2.3991948     0.012473146
       2270.0000       291.75387       98543.132       13628.616       2.1337500       1.0112500      0.50250000       343.46000       2.9141510     0.015894360
       2275.0000       291.74314       98542.125       13620.519       2.1270000       1.6400000      0.46500000       343.46800       3.5734536     0.019763983
       2281.0000       291.74915       98548.028       13624.954       2.3582500       1.2957500      0.36100000       343.31600       3.2966918     0.023656401
       2286.0000       291.78785       98547.081       13647.528       2.2350000      0.54375000      0.39325000       343.49900       2.1961749     0.016334088
       2291.0000       291.81805       98542.111       13669.890       3.1532500       1.2027500     -0.39350000       343.08000       2.4522094     0.016476469
       2296.0000       291.83095       98543.164       13672.485       2.8600000       1.6130000     -0.71525000       343.02500       3.2041752     0.014472671
       2301.0000       291.86739       98548.288       13700.260       2.7340000       1.7012500      0.32575000       343.20000       4.8692182     0.026452910
       2306.0000       291.95372       98545.473       13778.741       2.4542500       1.0427500     0.047250000       343.24300       3.1344434     0.020657000
       2311.0000       291.97170       98543.775       13794.695       2.3597500      0.35500000      0.65725000       343.36600       2.7731793     0.019596807
       2316.0000       291.94647       98553.953       13773.710       2.1867500      0.48725000     0.048250000       343.57500       1.9848979     0.016174890
       2321.0000       291.95654       98559.666       13778.036       2.3282500       1.0367500    0.0057500000       343.44000       2.9729853     0.025236328
       2326.0000       291.95375       98556.367       13770.500       1.6215000       1.8520000      0.39700000       343.53400       2.3594947     0.019902776
       2331.0000       291.94390       98553.401       13754.038       2.0865000     -0.31700000     0.056500000       343.61500       2.7727306     0.018645196
       2336.0000       291.95683       98554.108       13743.355       3.4472500      0.49375000   -0.0082500000       343.47100       2.4939167     0.016888954
       2341.0000       291.95073       98557.217       13737.375       2.0715000       1.2657500     -0.61000000       343.69200       2.2545485     0.019745562
       2346.0000       291.90013       98556.585       13709.758       2.4917500      0.32575000     -0.60275000       343.05300       2.0177187     0.018016765
       2351.0000       291.88611       98553.583       13696.631       3.2355000       1.6472500     0.099000010       343.25000       1.9935339     0.018061342
       2356.0000       291.88942       98556.363       13709.401       3.1235000       1.6217500     -0.10325000       342.84200       1.9339899     0.019871382
       2361.0000       291.90587       98556.086       13709.927       3.0570000       1.8797500    -0.046750000       342.95800       1.9503659     0.012417594
       2366.0000       291.95304       98544.649       13707.440       3.0682500       1.2700000     -0.27625000       342.97700       1.9862097     0.014323116
       2372.0000       291.95617       98542.496       13682.792       3.2380000       1.5692500      0.17225000       343.23700       1.9172234     0.018011238
       2377.0000       291.98585       98550.640       13671.863       2.7435000       1.5642500     0.093250010       343.40000       1.9019602     0.017421703
       2382.0000       291.91970       98551.789       13619.509       3.9042500       2.4585000     -0.82500000       342.93300       1.8811214     0.014627034
       2387.0000       291.76830       98550.524       13525.201       2.5700000       1.3072500     -0.36025000       343.35000       1.9451886     0.016038964
       2392.0000       291.67785       98550.630       13458.881       3.7790000       1.9920000     -0.29900000       342.86800       1.8956260     0.015686118
       2397.0000       291.54334       98548.547       13376.496       3.3505000       1.3260000     -0.23550000       343.03000       1.9098336     0.017238293
       2402.0000       291.48906       98552.352       13327.379       3.3032500    -0.060250000      0.45725000       343.45400       1.9031543     0.018827369
       2407.0000       291.48794       98559.716       13288.562       2.2997500    -0.080000010     -0.12850000       343.22800       1.8746654     0.020553538
       2412.0000       291.49516       98563.745       13282.941       1.9757500       1.1052500       1.1927500       343.51900       1.9378246     0.017991689
       2417.0000       291.54562       98573.782       13302.735       2.7740000       1.4782500      0.13625000       343.31900       1.9062717     0.019035202
       2422.0000       291.56599       98570.328       13332.389       3.0435000      0.79700010      0.42200000       343.34500       1.8803997     0.021052804
       2427.0000       291.60258       98553.818       13402.175       1.8412500      0.59475000      0.38125000       343.54700       1.9070156     0.017901677
       2432.0000       291.61389       98553.503       13433.815       1.8680000      0.89050010     -0.21375000       343.53000       1.8879478     0.012776491
       2437.0000       291.60004       98557.865       13450.653       1.7390000       1.2220000     -0.31850000       343.29600       1.8949780     0.019594743
       2442.0000       291.60004       98551.195       13490.830       2.7495000      0.81025000      0.25700000       343.44000       1.9018940     0.016125295
       2447.0000       291.59080       98543.611       13519.430       1.8442500       1.2262500      0.48350000       343.64700       1.8928986     0.014012470
       2452.0000       291.60930       98546.337       13580.309       2.2297500       1.9362500      0.15075000       343.41500       1.9034088     0.017186907
       2457.0000       291.64582       98546.207       13697.917       3.8402500      0.88850000     -0.12475000       343.19400       1.8881753     0.014404673
       2463.0000       291.66957       98540.221       13735.691       2.3527500       1.2190000      0.25850000       343.57700       1.9148445     0.012666113
       2468.0000       291.69986       98545.832       13747.577       1.6602500      0.67075000      0.98175010       343.76800       1.9241809     0.014347301
       2473.0000       291.73006       98550.870       13748.489       2.2062500       1.2720000    -0.068500000       343.18500       1.8900157     0.012611540
       2478.0000       291.74985       98545.358       13701.141       1.9365000      0.59000000      0.20600000       343.43400       1.9008423     0.011602141
       2483.0000       291.76985       98540.052       13673.181       2.5867500      0.80000000     0.044750000       343.75400       1.9401985    0.0098888048
       2488.0000       291.79991       98544.976       13672.359       1.3737500      0.63325010      0.32575000       343.58600       1.9086308     0.010335594
       2493.0000       291.81525       98550.170       13687.783       2.4655000       1.1830000    -0.075000000       343.13000       1.9329233     0.015857527
       2498.0000       291.84372       98545.168       13695.663       1.8715000      0.34425000      0.44725000       343.24200       1.9362567     0.011396015
       2503.0000       291.88449       98540.181       13711.429       1.5815000      0.49200000      0.38425000       343.41800       1.9041425     0.013497354
       2508.0000       291.96235       98545.872       13765.683       1.7440000       1.8722500     -0.42825000       343.07900       1.9162949     0.018565988
       2513.0000       291.96956       98550.910       13754.834       1.4675000       1.3002500      0.10975000       343.27500       1.9569083     0.013243376
       2518.0000       291.95617       98544.295       13703.735       1.9202500       1.6685000    -0.061250000       343.17500       1.9155842     0.010893186
       2523.0000       291.92957       98552.097       13706.353       1.6352500      0.97600010     -0.45075000       343.29700       1.8959715     0.019850137
       2528.0000       291.89942       98557.587       13695.070      0.53850000       1.5382500      0.34675000       343.47300       1.9072482     0.021046661
       2533.0000       291.85487       98547.736       13689.318       1.9665000      0.45225000      0.54450010       343.31800       1.9355635     0.014033116
       2538.0000       291.84383       98543.448       13698.931       1.9000000       1.0560000     0.099500010       343.79100       1.9146958     0.020235759
       2543.0000       291.85983       98548.866       13718.977       2.0457500       1.1435000      0.10675000       343.26400       1.9267305     0.018824432
       2548.0000       291.84976       98550.994       13712.730       1.8495000       1.4805000    -0.029000000       343.23100       1.9234425     0.017771060
       2554.0000       291.84260       98550.500       13702.947       1.7275000      0.37675000     0.078000000       343.40200       1.8880483     0.016304095
       2559.0000       291.85269       98550.598       13702.119       2.6325000      0.34575000      0.26275000       343.59800       1.9183598     0.018824732
       2564.0000       291.84450       98551.708       13669.865       2.2865000      0.54650000    -0.039750000       343.23100       1.9049578     0.015795082
       2569.0000       291.84570       98550.583       13657.799       3.2920000       1.3080000     -0.32850000       343.34300       1.9190799     0.015195539
       2574.0000       291.89018       98542.480       13663.948       2.7055000     0.074250010      0.13150000       343.51700       1.9041001     0.014091585
       2579.0000       291.90911       98543.747       13686.545       2.4777500       1.4687500    -0.047750000       343.64200       1.9115920     0.020138158
