MIRICO/SHELL project - Processed LDS file generated on
Tue Jul 18 23:24:24 2017
Time stamp for record start
05/11/2017  15:22: 8.0000
Nb of points in the record
         511
Beam position index
       6.0000000
Beam angle (degrees)
       13.599000
Open Path length (m)
       58.300000
****************** Temporal data record ************************
Elapsedtime_sec Temp_K Press_Pa Humidity_ppmv WindX_m/s WindY_m/s WindZ_m/s Speedofsound_m/s CH4vmr_ppmv CH4vmrerror_ppmv  
      0.00000000       292.72476       98562.521       13407.380       1.1495000      0.86850010      0.48475000       344.91600       1.7829647     0.025004404
       5.0000131       292.77677       98557.758       13416.539       2.0202500       1.4517500       1.2812500       344.19200       1.8006218     0.025966124
       10.000026       292.83680       98560.600       13450.382       1.1615000       2.1232500    -0.064750000       343.32100       1.7811772     0.025817386
       14.999999       292.87372       98575.485       13501.060       1.1490000      0.77800010      0.16975000       344.77200       1.8313901     0.024253202
       20.000012       292.92964       98578.508       13540.417       1.4180000       2.6862500     -0.59675000       343.64400       1.8199895     0.025323646
       25.000025       293.04070       98579.606       13609.078       1.2477500       2.3020000     -0.30975000       344.42200       1.8216764     0.023679718
       29.999998       293.08829       98574.286       13652.606       1.7755000       2.9240000     -0.52950000       343.46600       1.8245020     0.026164814
       35.000011       293.11094       98553.283       13680.461       1.1125000       2.2855000     -0.30375000       343.48000       1.8106609     0.025198978
       40.000024       293.10822       98552.409       13690.277       1.3362500       1.6275000      0.11650000       344.26400       1.8690881     0.024825533
       44.999997       293.03556       98558.396       13666.930       2.2227500       1.8870000     -0.11775000       344.11600       1.8323407     0.024242080
       50.000010       293.04791       98560.552       13696.175      0.86400000       1.5290000     -0.18000000       344.41300       1.8019651     0.024784454
       55.000024       293.06351       98579.041       13724.052       2.0415000       1.8207500     -0.30425000       343.85700       1.8541032     0.024730470
       59.999996       293.12180       98577.755       13771.126       2.2592500       1.4352500    -0.093750010       344.10900       1.8295701     0.024908667
       65.000010       293.27108       98553.241       13874.288       2.5125000      0.50475000      0.11525000       344.49800       1.8258170     0.028566042
       70.000023       293.35392       98552.372       13947.297       3.2272500      0.86500010     -0.26125000       344.31100       1.8327856     0.026321538
       75.999990       293.46090       98558.312       14036.467       2.2730000       1.2915000     -0.41775000       343.96300       1.8175407     0.023577421
       81.000003       293.48413       98561.134       14063.348      0.77075000      0.42100000      0.40375000       345.05900       1.8224216     0.026055592
       86.000016       293.45639       98579.417       14089.652       2.4147500       1.9622500     -0.25600000       344.73300       1.8105997     0.024941907
       90.999989       293.44762       98576.280       14057.872       1.3377500       2.5547500      0.53700000       344.52500       1.7820084     0.026069306
       96.000002       293.41452       98552.521       13967.027       2.4550000       2.1795000      0.36025000       344.58100       1.8945289     0.021871566
       101.00002       293.36578       98552.909       13871.283      0.23075000       2.1042500     0.078500000       345.59100       1.8200787     0.026882270
       105.99999       293.30749       98560.309       13729.945       1.2577500       3.6895000     -0.46575000       343.30300       1.8432652     0.024515318
       111.00000       293.26780       98559.289       13639.038       1.9810000       1.0787500      0.95850000       345.25300       1.8202797     0.025533690
       116.00001       293.21207       98567.642       13552.210       3.6485000       2.7202500     -0.51625000       343.21500       1.8249759     0.024555798
       121.00003       293.15235       98566.167       13453.350       3.6325000       3.5607500      0.11700000       343.23400       1.7390469     0.026121456
       126.00000       293.07200       98546.552       13329.118       3.4777500       2.4295000      0.28650000       343.78500       1.8193249     0.023370145
       131.00001       293.10729       98548.886       13332.510       1.6857500       2.7240000      0.46850000       344.02100       1.7923377     0.023332958
       136.00003       293.17838       98567.477       13373.613       2.1210000       2.4737500     -0.24050000       343.95300       1.8673476     0.023927413
       141.00000       293.23566       98565.942       13420.302       2.0770000       1.6795000      0.83500000       344.83800       1.8155197     0.023744460
       146.00001       293.41280       98561.782       13589.550       2.2692500       1.3092500      0.11400000       343.57700       1.8652140     0.028219278
       151.00003       293.45844       98559.114       13664.354       3.2275000       2.5500000    -0.079250000       343.25700       1.8725314     0.024236237
       156.00000       293.39149       98541.943       13660.155       2.1275000       2.3530000     -0.37675000       343.36300       1.8300623     0.025200544
       161.00001       293.41024       98543.166       13726.717       3.2577500       2.5177500      0.25750000       344.10400       1.7888900     0.023949783
       167.00002       293.44201       98562.893       13844.115       2.1962500       1.7300000       1.1612500       344.81600       1.8037163     0.024267895
       171.99999       293.48350       98561.361       13924.040       2.7030000       1.9137500      0.10425000       344.62000       1.9008131     0.024075684
       177.00001       293.57414       98554.872       14037.516       3.7567500       3.3585000      0.38650000       343.85900       1.8197919     0.026228690
       182.00002       293.50839       98553.973       13986.110       3.4297500       1.6865000     -0.25650000       343.29300       1.9147727     0.027923630
       186.99999       293.46057       98553.614       13947.826       2.7720000      0.43200000       1.8085000       344.72400       1.8422730     0.024252294
       192.00000       293.29801       98570.325       13786.946       3.7740000       3.3312500     -0.54400000       343.94000       1.8305834     0.025800041
       197.00002       293.22399       98573.934       13710.413       3.1247500       4.8905000     -0.25425000       343.42700       1.8121330     0.026098663
       201.99999       293.23020       98555.278       13717.278       2.4390000       2.1922500      0.22375000       343.37700       1.7567468     0.021267688
       207.00000       293.23763       98552.773       13705.510       4.1842500       1.9172500    0.0045000000       343.42400       1.8060633     0.023993413
       212.00002       293.26958       98555.185       13705.050       2.5755000       2.5067500     -0.87300000       344.58500       1.8447914     0.025569571
       216.99999       293.36232       98558.650       13748.382       3.3105000       2.4327500      0.27200000       344.39900       1.8301491     0.023393002
       222.00000       293.36985       98561.977       13721.616       2.0695000       3.0685000      0.48225000       344.88100       1.8252462     0.023724503
       227.00002       293.34963       98579.494       13656.472       2.4137500       1.4455000     -0.27950000       345.00000       1.7946756     0.024766671
       231.99999       293.37570       98556.865       13610.433       3.0955000       1.8590000     0.071750000       344.01100       1.8226323     0.024563053
       237.00000       293.35744       98552.101       13588.829       1.4105000       1.0660000      0.39750000       345.32000       1.8021756     0.023514246
       242.00002       293.37006       98562.669       13638.329       2.9880000       2.8265000     -0.22450000       343.92700       1.8174895     0.024298372
       247.00003       293.32535       98560.770       13639.639       2.9840000       1.7670000     -0.43525000       344.63300       1.8379358     0.025336936
       252.00000       293.23142       98557.649       13623.056       2.2252500      0.99475000   -0.0010000000       345.61600       1.8413646     0.022934569
       258.00001       293.01886       98562.367       13585.140       2.7705000       2.6630000     -0.27800000       344.36800       1.8567680     0.024516897
       263.00002       292.95054       98543.620       13565.387       2.7385000       3.1652500      0.10275000       344.78300       1.8204641     0.023777956
       267.99999       292.92574       98541.610       13545.877       2.7262500       2.7657500      0.33975000       344.11800       1.8206225     0.024740831
       273.00001       292.99720       98565.260       13530.157       2.0090000       2.3005000     -0.56525000       344.66700       1.8020135     0.023906201
       278.00002       293.05873       98568.699       13548.138       2.8212500       3.9257500     -0.98550000       343.53000       1.8672973     0.022870250
       282.99999       293.13087       98562.549       13571.086       2.9327500       2.5875000     -0.88375000       343.20800       1.8111429     0.024062014
       288.00001       293.21156       98561.365       13604.750       3.7517500       1.8425000     -0.29775000       343.69700       1.8469172     0.023512008
       293.00002       293.34828       98547.523       13678.343       2.5597500      0.99700000    -0.012000000       343.86800       1.8500058     0.022561776
       297.99999       293.42523       98542.031       13755.253       4.7070000       2.4405000     -0.20025000       343.66500       1.8253021     0.022709567
       303.00001       293.49494       98550.678       13849.991       4.2955000       1.6750000       1.7152500       344.16100       1.8574723     0.022101644
       308.00002       293.52081       98551.339       13917.396       2.0680000       2.9797500      0.36900000       343.83000       1.8167086     0.022764001
       312.99999       293.52241       98541.326       14052.196       2.3055000       2.4025000      0.53300010       344.33400       1.7908898     0.023521280
       318.00001       293.45720       98543.897       14064.692    -0.042500000       4.9662500      0.35550000       344.00400       1.8984072     0.023014637
       323.00002       293.28557       98559.273       13957.148       2.4025000       3.0067500      -1.0850000       343.90100       1.8387666     0.021905757
       327.99999       293.17468       98562.139       13880.042       3.0057500       5.4607500     -0.76925000       343.87800       1.8160843     0.021732112
       333.00000       293.00451       98566.358       13722.821       4.5747500       4.5357500     -0.61075000       343.27800       1.8710385     0.021672441
       338.00002       292.91045       98567.899       13615.739       3.2787500       5.3982500     -0.67800000       343.56800       1.8284902     0.023084624
       344.00003       292.90502       98547.911       13527.248       2.5182500       2.5080000      0.63975000       343.93500       1.8650475     0.022060481
       349.00000       292.88905       98547.332       13469.967       3.7812500       2.1180000     -0.28850000       343.60300       1.8549354     0.021752681
       354.00001       292.88742       98566.916       13405.084       3.0450000       3.8032500     -0.19700000       343.54700       1.8619986     0.022292981
       359.00002       292.90142       98567.428       13395.181       3.2550000       2.5685000      0.92350010       344.31100       1.7952118     0.023237296
       364.00000       292.90011       98558.162       13417.205       3.6245000       3.2387500     -0.59550010       343.86200       1.8435655     0.020927410
       369.00001       292.96125       98560.480       13477.595       4.0555000      0.91400000      0.56775000       343.90200       1.8222671     0.023115965
       374.00002       293.09715       98558.716       13616.813       3.9405000       3.2565000      0.20500000       343.94300       1.8816571     0.022109568
       379.00000       293.18639       98558.839       13712.708       2.6977500       2.4375000      0.55200000       343.95800       1.8101576     0.024673416
       384.00001       293.30949       98580.872       13818.405       2.5352500       1.5747500      0.84275000       344.47700       1.9015116     0.020403407
       389.00002       293.39152       98578.540       13923.951       2.6230000       1.1275000      0.96025000       344.05600       1.8393317     0.022542817
       394.00000       293.41850       98544.243       13995.821       2.9712500       4.2927500     -0.27225000       343.38800       1.8830056     0.021969539
       399.00001       293.46846       98540.958       14105.800       2.8560000       4.8765000     -0.12300000       342.92700       1.8146087     0.021702180
       404.00002       293.53220       98547.001       14270.795       2.5590000       1.4515000     -0.28800000       343.55500       1.8637705     0.023523524
       408.99999       293.56857       98549.434       14385.222       2.7847500       3.2092500     -0.48075000       343.34400       1.8623370     0.021744019
       414.00001       293.60775       98576.043       14535.026       2.4942500       3.8182500      0.30950000       343.60600       1.8719133     0.021681153
       419.00002       293.61059       98581.251       14581.667       2.1985000       3.1770000     -0.29700000       343.46200       1.8974594     0.020995753
       423.99999       293.58792       98559.220       14587.961       1.9022500       3.0782500     0.084000010       343.92800       1.8990050     0.021131099
       429.00001       293.54081       98557.714       14504.515       3.1557500       3.6972500     -0.29975000       343.87700       1.9042769     0.020658854
       435.00001       293.44202       98567.586       14254.843       4.4605000       3.1427500     -0.63600000       343.58000       1.8918427     0.022543181
       440.00003       293.35527       98564.374       14080.429       1.9847500       2.3265000      -1.3437500       343.55800       1.9009164     0.021915786
       445.00000       293.22941       98559.917       13831.124       3.4392500       1.8025000     -0.95525000       343.87000       1.8623574     0.022101810
       450.00001       293.14540       98561.011       13668.412       2.2727500       3.5180000     -0.51125000       343.74800       1.8811912     0.021706827
       455.00003       293.05787       98552.131       13548.244       4.5100000       3.5400000     -0.45175000       343.65700       1.8784006     0.021751864
       460.00000       293.01006       98554.189       13439.540       2.2275000      0.31550000      0.17975000       344.38700       1.8470369     0.021172724
       465.00001       293.01149       98580.958       13358.553       2.3102500      0.23625000      0.32175000       344.32700       1.8431727     0.021417924
       470.00003       292.98163       98577.240       13288.992       3.7947500     -0.31825000     -0.32475000       343.99500       1.8409889     0.023991621
       475.00000       292.95818       98548.180       13227.301       4.9577500     0.027500000     -0.14100000       343.69600       1.8221707     0.021913438
       480.00001       292.93827       98547.203       13202.608       3.6797500      0.77925000      0.33075000       344.51200       1.8283947     0.021836954
       485.00002       292.92426       98549.069       13227.129       5.3747500    -0.049750000      -1.2995000       344.10100       1.9168909     0.020491474
       490.00000       292.87780       98548.090       13214.937       5.0737500      0.40275000    -0.078750010       344.10800       1.8292799     0.021578316
       495.00001       292.83806       98567.088       13219.771       3.6922500       1.4990000     -0.15325000       343.89200       1.8697730     0.021317994
       500.00002       292.76518       98569.453       13202.628       6.4722500     -0.85575000      0.46525000       343.42000       1.8641984     0.021432633
       505.00000       292.62723       98547.015       13137.172       5.6000000      0.94275000       1.0495000       343.83700       1.8589302     0.021050938
       510.00001       292.54317       98547.633       13123.654       4.4592500       1.0672500      0.27250000       343.62600       1.8642322     0.020451444
       515.00002       292.44796       98567.333       13114.660       4.1845000       1.6945000    -0.015750000       343.73500       1.8851709     0.020192903
       520.00000       292.41691       98566.833       13151.393       3.4262500      0.70525000     -0.34475000       343.92600       1.9217101     0.021914313
       526.00000       292.45111       98560.311       13265.819       2.4657500       1.8782500      0.90350000       344.00600       1.8697471     0.021572026
       531.00002       292.44107       98561.276       13305.151       3.4842500       1.4532500      0.33750000       343.88700       1.8808326     0.021599351
       535.99999       292.44858       98553.187       13349.260       5.2710000       1.3177500     -0.12400000       343.14900       1.8496974     0.021085199
       541.00000       292.45899       98554.762       13389.255       4.4542500       2.6285000     -0.65050010       343.21500       1.9097755     0.021608048
       546.00002       292.45259       98574.067       13390.946       2.7290000       1.5125000      0.23750000       343.92100       1.9026467     0.022235957
       550.99999       292.44267       98571.901       13414.899       4.6117500       1.5097500      0.51400000       343.66200       1.8896453     0.022196888
       556.00000       292.46611       98553.002       13477.321       3.1705000       1.1285000      0.93375000       343.99100       1.8930316     0.022075812
       561.00001       292.43883       98554.568       13486.316       4.0860000      0.86475000     -0.37675000       343.83200       1.8721560     0.023182848
       566.00003       292.36046       98561.495       13469.447       2.6230000       1.2492500      0.97575000       344.22100       1.8718546     0.020900897
       571.00000       292.31099       98558.687       13434.624       5.5940000       2.4205000     -0.12750000       343.68100       1.8952574     0.021399094
       576.00001       292.26186       98562.566       13376.198       3.7205000      0.69350000     -0.34250000       343.12200       1.9014408     0.021305133
       581.00003       292.21161       98560.900       13316.510       4.1827500       2.1625000     -0.14300000       343.71900       1.8348287     0.019529623
       586.00000       292.16060       98542.190       13233.385       3.2940000       2.2067500     0.070750010       343.68000       1.8793940     0.022053316
       591.00001       292.11049       98543.403       13161.460       2.4155000       1.3905000     -0.39900000       343.84100       1.9012537     0.022595864
       596.00003       292.05027       98558.962       13078.935       2.4707500      0.72575000     -0.63975000       343.75400       1.8882644     0.021749551
       601.00000       292.01899       98565.917       13029.118       3.4615000       1.6850000     -0.91825000       343.61800       1.8818457     0.021332628
       606.00001       291.98858       98575.566       12970.411       3.1272500      0.93725000    -0.043750000       343.74200       1.8683602     0.021002717
       611.00003       291.99628       98579.827       12976.691       5.8202510       2.3055000     -0.66475000       342.78600       1.8764858     0.020656326
       616.99999       292.04902       98582.717       13044.238       4.4982500       1.9155000     0.025250000       343.29000       1.8719536     0.019768361
       622.00001       292.06900       98577.028       13083.215       4.6802500       2.9092500      0.85625000       343.42700       1.8689800     0.022183913
       627.00002       292.09389       98565.303       13144.390       5.5060000       2.6270000    -0.097250010       343.14800       1.8963774     0.025523226
       631.99999       292.16108       98550.199       13230.936       4.9377500       3.0690000     -0.85000000       342.77200       1.8857080     0.025403171
       637.00000       292.20148       98546.318       13303.702       3.3225000       1.2067500      0.50250000       343.69000       1.8403435     0.018312986
       642.00002       292.30111       98565.350       13449.219       3.8162500       1.1417500     -0.23775000       343.15600       1.9053626     0.028419512
       646.99999       292.32545       98567.740       13516.031       3.4630000       1.7820000      0.26650000       343.22600       1.8576840     0.022546570
       652.00000       292.25549       98557.956       13519.074       3.1855000       2.7990000     -0.27050000       343.35000       1.8324451     0.019884064
       657.00002       292.20744       98559.905       13505.251       4.1435000      0.85225000      0.32975000       343.33300       1.8454737     0.021531647
       661.99999       292.14710       98563.075       13458.184       3.2045000       1.2812500      0.42775000       343.55100       1.8265392     0.022052092
       667.00000       292.04508       98559.431       13349.628       4.5830000       1.2542500     -0.41575000       343.22800       1.8353827     0.023537308
       672.00002       291.98594       98557.593       13285.263       3.2105000      0.72375010     0.066000000       343.61100       1.8326828     0.022992574
       676.99999       291.94976       98567.529       13222.203       2.5290000       1.5765000      0.54175000       343.72600       1.8464513     0.021332851
       682.00000       291.86977       98550.261       13111.216       1.7625000      0.80875000      0.50825000       344.05000       1.8195994     0.021783243
       687.00002       291.83660       98546.319       13048.266       1.6267500       1.2932500     -0.27575000       343.80300       1.8368289     0.022113531
       691.99999       291.84512       98565.311       12991.431       2.7512500       2.1162500     -0.36050000       343.34700       1.8204941     0.021058229
       697.00000       291.84397       98567.741       12952.922       3.4825000       3.9940000    -0.074750010       343.31500       1.8063604     0.022809991
       702.00001       291.85510       98565.240       12941.716       3.3267500       2.2580000     -0.97525010       343.48100       1.8312723     0.022469353
       708.00002       291.90564       98560.298       12986.503       2.7472500       2.7040000      0.16325000       343.20000       1.8504330     0.023451819
       713.00000       291.94773       98562.195       13018.671       2.0770000       1.1672500       1.0010000       343.83400       1.8226761     0.021995585
       718.00001       291.95612       98559.279       13031.149       4.2260000       1.4487500     0.034500000       343.14600       1.8278263     0.023340952
       723.00002       291.92771       98566.117       13014.089       2.1445000       1.4205000    -0.011500000       343.43100       1.7972167     0.018316414
       727.99999       291.94884       98567.685       13047.981       2.2565000       1.1030000     -0.34600000       343.85600       1.8383693     0.021884318
       733.00001       291.97755       98548.910       13096.456       4.1225000    0.0027500000    -0.035000000       343.79100       1.8413543     0.023164310
       738.00002       291.99848       98546.776       13151.339       4.3725000       2.7082500     -0.67475000       343.33200       1.8067604     0.023209303
       742.99999       292.06594       98569.042       13272.211       3.7670000       3.1960000     -0.28225000       343.09000       1.8162989     0.022589637
       748.00001       292.11427       98568.353       13355.485       2.8447500       2.9942500     -0.43100000       342.93800       1.7980932     0.022927388
       753.00002       292.13340       98548.593       13433.276       3.1812500       2.6825000    -0.015250000       343.33800       1.8095184     0.021545292
       757.99999       292.15343       98548.935       13475.356       2.8782500       1.6472500     -0.25875000       343.52500       1.8256543     0.021700173
       763.00001       292.18902       98550.886       13494.131       2.3870000       1.3212500     -0.73000000       343.72800       1.8281264     0.021246724
       768.00002       292.20758       98548.130       13497.681       3.2082500       2.6285000     -0.28500000       343.47600       1.8114575     0.024460543
       772.99999       292.20020       98564.169       13454.487       3.2615000       1.8027500    -0.097500000       343.31000       1.8143531     0.022547856
       778.00000       292.20032       98569.601       13423.554       2.6447500      0.43800000     -0.38200000       343.61800       1.8390690     0.018837851
       783.00002       292.20033       98550.405       13390.119       3.2557500       1.7107500      0.48275000       343.69100       1.8440758     0.023298851
       787.99999       292.20045       98547.058       13356.483       2.8807500       2.8522500     -0.38175000       343.45600       1.8179125     0.019918849
       793.00000       292.21503       98561.411       13336.383       2.6145000      0.99725000      0.20275000       343.55200       1.8210342     0.022031525
       799.00001       292.19991       98561.668       13278.732       2.8057500       2.1412500      0.12125000       343.63700       1.8360298     0.022438546
       804.00002       292.13630       98552.679       13165.667       3.0632500       3.6122500     -0.34600000       343.67100       1.8238040     0.020287965
       809.00000       292.14401       98555.506       13151.702       2.3780000       1.3372500     -0.15175000       343.57500       1.8102574     0.022923769
       814.00001       292.19587       98561.197       13190.482       3.5050000       2.8910000     -0.27225000       343.57500       1.8217267     0.022721854
       819.00002       292.20633       98560.263       13201.277       4.0217500       3.8222500     -0.62100010       343.38200       1.8020122     0.022893323
       824.00000       292.23975       98566.908       13266.837       3.2435000       3.0362500     -0.43375000       343.27700       1.8205873     0.021149332
       829.00001       292.26586       98567.368       13310.684       3.6007500       2.8117500     -0.39075000       343.21100       1.8379322     0.022112811
       834.00002       292.24317       98549.287       13302.843       1.2537500       3.0650000      0.17250000       343.38600       1.8304426     0.022891551
       839.00000       292.24679       98547.116       13328.424       2.6397500       2.1905000      0.27750000       343.72400       1.8182173     0.023262632
       844.00001       292.26818       98561.816       13390.524       2.7162500       2.0810000      0.43075000       343.58700       1.8131770     0.022231188
       849.00002       292.31212       98561.684       13442.775       1.3857500       1.0520000      0.42650000       344.08000       1.8051022     0.021756063
       853.99999       292.40129       98552.667       13523.394       2.4895000       2.0607500     -0.14750000       343.79200       1.8087323     0.021282980
       859.00001       292.41374       98555.474       13535.781       1.9845000       2.6740000     -0.47650000       343.05800       1.8070268     0.023645881
       864.00002       292.41302       98561.204       13503.385       2.3937500       2.4630000     -0.17825000       343.66800       1.8035381     0.021733992
       868.99999       292.40562       98560.270       13495.832       3.2600000       1.8675000      0.13150000       343.43700       1.8134441     0.020224837
       874.00001       292.32296       98566.885       13450.385       2.0542500       1.7147500     0.033000000       343.75800       1.7975894     0.022527364
       879.00002       292.27719       98567.383       13417.475       1.9165000       2.7307500     -0.43550000       343.48500       1.8093934     0.023118805
       883.99999       292.26275       98549.065       13425.781       2.0945000       2.6942500       1.6637500       344.15200       1.7696452     0.022766706
       890.00000       292.23871       98547.368       13395.638       2.8337500       2.0980000     -0.30175000       343.33100       1.7762636     0.022751744
       895.00001       292.21187       98561.995       13333.207      0.94775000       2.8395000      0.82825010       344.02500       1.7896583     0.021401614
       900.00003       292.18154       98561.109       13287.051      0.90850000       1.0120000      0.84175000       344.23100       1.7917452     0.022129495
       905.00000       292.16848       98552.855       13245.782       3.3090000       1.7595000     -0.40500000       344.22600       1.7941910     0.021440474
       910.00001       292.13240       98556.065       13201.062       2.3797500       3.5997500      0.25550000       343.82000       1.7862417     0.021487583
       915.00003       292.06988       98561.879       13149.057       3.7480000       1.7395000      0.16075000       343.30200       1.8188085     0.021583965
       920.00000       292.02052       98559.296       13105.318       3.1887500      0.19125000     -0.17975000       343.47600       1.7787386     0.019183945
       925.00001       291.94794       98559.821       13035.290       3.8945000       1.5092500    -0.030250000       343.67600       1.7842936     0.021917172
       930.00003       291.93044       98562.192       13038.594       2.7095000       1.2450000      0.27725000       343.60600       1.8006275     0.019436364
       935.00000       291.95383       98555.093       13092.035       3.6700000      0.79775010     -0.32300000       343.86000       1.7992132     0.021348255
       940.00001       291.94397       98552.320       13118.093       3.7920000       1.2747500     -0.40725000       343.39000       1.8317488     0.022169220
       945.00002       291.94648       98562.763       13179.042       2.1120000       2.8067500      0.30125000       343.63100       1.7725127     0.024501925
       950.00000       291.95695       98561.370       13228.432       2.8115000       1.8687500    -0.060500000       343.64800       1.8139202     0.021675424
       955.00001       291.94394       98542.897       13256.396       3.5410000       1.1142500     -0.61675000       343.32400       1.8000643     0.020768353
       960.00002       291.95022       98542.928       13284.747       2.6885000       1.2442500      0.36450000       344.09700       1.7940063     0.021461583
       965.00000       291.96531       98558.523       13318.645       3.3645000      0.72375010     -0.35400000       343.73300       1.8310068     0.019500187
       970.00001       292.02717       98555.032       13369.722       4.3565000       1.3182500     -0.15175000       343.83300       1.7875960     0.021269511
       976.00002       292.13559       98543.784       13424.632       5.2615000       1.7110000      0.13450000       342.85300       1.7705039     0.021247079
       980.99999       292.19615       98546.489       13466.242       2.5680000      0.73475000      0.33750000       343.73900       1.8257332     0.020629056
       986.00000       292.31671       98543.898       13546.154       3.8340000       2.2962500     -0.10025000       343.44600       1.8251115     0.020854741
       991.00002       292.33184       98544.603       13568.960       3.8152500       1.7930000      0.34700000       343.65100       1.8256151     0.020586573
       995.99999       292.27139       98560.768       13558.606       4.3645000       2.2392500      0.47575000       343.25000       1.7721060     0.023457215
       1001.0000       292.21428       98566.154       13525.397       2.5842500       2.7590000      0.25475000       343.33300       1.7694739     0.022731009
       1006.0000       292.08709       98559.012       13443.522       2.3932500      0.73350010     -0.13250000       343.66500       1.7663184     0.023181063
       1011.0000       292.07379       98560.756       13431.046       1.7980000       1.1725000      0.37875000       343.44100       1.7921318     0.019242032
       1016.0000       292.08552       98575.455       13418.971       3.6705000       1.7805000      0.69850000       343.55600       1.7959992     0.020788633
       1021.0000       292.10245       98568.486       13412.613       3.2895000      0.93550000     -0.34525000       343.33500       1.7824232     0.022806788
       1026.0000       292.19625       98542.979       13460.785       2.8187500     -0.24000000      0.20775000       343.76300       1.7874499     0.020541161
       1031.0000       292.23751       98542.371       13463.855       4.1980000    0.0047500000      0.37300000       343.28800       2.0459734     0.023112447
       1036.0000       292.24614       98544.817       13424.398       3.6210000      0.59025000      0.22475000       343.33800       2.8221516     0.023043424
       1041.0000       292.26635       98543.546       13424.293       4.7795000    -0.048250000       1.3230000       343.58200       2.8552724     0.025269293
       1046.0000       292.28512       98556.856       13434.852       3.7027500       1.0440000     -0.26375000       343.61400       2.6346301     0.023062956
       1051.0000       292.33358       98558.397       13463.920       4.4272500       1.2365000    -0.070750010       343.35600       2.7112282     0.024582480
       1056.0000       292.37413       98544.182       13500.053       3.1587500      0.22375000      0.22600000       343.75200       2.2623981     0.021664573
       1061.0000       292.45086       98542.891       13563.476       4.1737500     -0.10925000     -0.45725000       343.50300       1.9734235     0.021364963
       1067.0000       292.61821       98551.568       13680.772       2.9362500      0.19225000    -0.036000000       343.96700       1.8597639     0.019334094
       1072.0000       292.65445       98550.273       13753.835       2.7570000      0.32000000      0.70800000       343.87800       1.9846383     0.024443943
       1077.0000       292.66219       98543.477       13844.899       2.8172500      0.29750000    -0.042750000       343.47600       2.1287367     0.019368019
       1082.0000       292.61481       98558.312       13868.223       3.0225000     -0.41900000     -0.10375000       343.63600       2.3850593     0.023498064
       1087.0000       292.59332       98557.929       13879.117       2.8130000     -0.53925000     -0.50925000       343.53100       2.4339659     0.022312785
       1092.0000       292.58519       98543.210       13845.217       4.3375000     -0.45325000      0.41375000       343.50700       2.9210831     0.023580749
       1097.0000       292.59423       98543.959       13823.643       4.8605000      -1.0730000    -0.012250000       343.66300       3.4946827     0.028940325
       1102.0000       292.61528       98547.393       13789.888       3.4075000     0.079000000    0.0087500000       343.94000       4.1506479     0.025753608
       1107.0000       292.64391       98544.215       13768.662       4.6807500    -0.061000000     -0.40175000       342.99700       3.3104620     0.025992578
       1112.0000       292.68489       98543.495       13754.748       3.9140000     -0.16725000     -0.32925000       343.47500       4.8059161     0.029890577
       1117.0000       292.74921       98558.262       13742.958       3.7985000     -0.44100000     0.061000000       343.93100       3.9644453     0.025618959
       1122.0000       292.79978       98558.776       13757.091       2.7582500      0.67750000     -0.12925000       344.32100       2.7956001     0.021566528
       1127.0000       292.84342       98542.295       13772.852       2.6812500      0.86325000     0.039500000       344.23400       2.2721731     0.021585686
       1132.0000       292.96093       98559.323       13932.958       2.9682500       1.4512500    -0.048500000       344.02900       1.9136849     0.019281842
       1137.0000       293.01463       98562.976       13997.869       3.4187500       2.3895000       1.1182500       343.76400       1.9222237     0.023572655
       1142.0000       293.04023       98553.901       14033.376       2.2902500     0.015750000      0.34675000       343.70600       1.8339354     0.021870592
       1147.0000       293.06245       98554.793       14066.053       2.7212500      0.93775000     -0.14375000       343.24400       1.7889997     0.020611803
       1152.0000       293.06008       98556.907       14064.909       2.4620000       1.1077500      0.20300000       343.96300       1.7847290     0.019514362
       1158.0000       292.99142       98555.399       13969.750       2.3400000      0.95525000    -0.017750000       343.49200       1.7373470     0.023561564
       1163.0000       292.98591       98543.207       13965.127       2.0797500       2.2260000     -0.70900010       343.03700       1.7375721     0.021466243
       1168.0000       292.99732       98544.541       13956.695       3.1972500      0.94175000    -0.034500000       344.24700       1.7901472     0.020048494
       1173.0000       293.04879       98546.696       13952.662       3.0880000       3.2582500     -0.14850000       343.40300       1.7468320     0.022770113
       1178.0000       293.05780       98544.014       13927.064       2.2565000      0.71100000      0.22500000       343.42200       1.7539948     0.023718400
       1183.0000       293.02826       98551.140       13876.898       3.0405000       1.2457500      0.29250000       342.98000       1.7580131     0.022747521
       1188.0000       293.04957       98557.855       13860.546       2.1835000       1.3425000     -0.30150000       343.45900       1.7714104     0.022057027
       1193.0000       293.07781       98553.502       13832.142       2.5007500      0.65975000     -0.27650000       343.45500       1.7627945     0.023890854
       1198.0000       293.09884       98553.876       13827.402       2.0232500       1.5300000      0.24500000       344.11500       1.7452831     0.024562086
       1203.0000       293.22501       98570.358       13910.660       1.4422500       1.7967500    -0.069500010       344.82800       1.7545372     0.022835002
       1208.0000       293.22865       98573.715       13913.164       1.0452500       1.7017500      0.62500000       344.65700       1.7704038     0.023784621
       1213.0000       293.09854       98560.633       13855.439       3.3177500       1.7607500      0.63100000       344.63800       1.7495777     0.024155283
       1218.0000       293.03851       98558.865       13827.270       4.4130000       1.6257500      0.31275000       344.86100       1.7681098     0.021835184
       1223.0000       292.90127       98566.175       13732.847       3.0740000      0.19900000     -0.12825000       344.82100       1.7429423     0.021881517
       1228.0000       292.86650       98560.894       13714.614       1.7900000      0.18125000    -0.092250000       345.28600       1.7745278     0.023184409
       1233.0000       292.95402       98544.087       13773.592       2.5817500      0.34225000    -0.056000000       344.68900       1.8373815     0.021861778
       1238.0000       293.00486       98543.424       13815.698       1.0895000     -0.35175000      0.23775000       345.36900       1.9085190     0.022327551
       1243.0000       293.11390       98546.113       13903.121       3.1922500      0.37150000     -0.58600000       344.42600       1.8304179     0.024478498
       1249.0000       293.17927       98543.159       13968.971       2.9355000     0.014250000    -0.046250000       344.07300       1.7760559     0.021533756
       1254.0000       293.19452       98552.464       14008.115       2.8040000      0.61725000     -0.13375000       344.27100       1.8022352     0.020546293
       1259.0000       293.21088       98558.822       14038.830       2.9545000       1.0457500     -0.25100000       344.38400       1.7724415     0.020262983
       1264.0000       293.18707       98555.816       14036.730       3.5882500       2.2962500    -0.095250000       344.28600       1.8047544     0.023114192
       1269.0000       293.20076       98554.154       14068.683       2.9167500      0.30275000      0.37375000       344.13700       1.9552160     0.021033020
       1274.0000       293.23819       98562.591       14118.934       2.6642500      0.64475010      0.37425000       344.42300       1.8379619     0.019905152
       1279.0000       293.25794       98562.038       14153.580       1.3592500       1.2770000      0.65125000       345.11200       1.7925181     0.024149609
       1284.0000       293.30773       98543.589       14237.916       2.8427500       3.5995000      0.41075000       343.58300       1.7628643     0.022241831
       1289.0000       293.31036       98542.430       14239.947       3.8502500      0.96425000     0.094250000       343.74300       1.7514336     0.021937326
       1294.0000       293.27612       98558.561       14181.356       3.5212500       1.5045000      0.44975000       344.32400       1.7944724     0.019874234
       1299.0000       293.24212       98556.012       14128.951       3.4082500     -0.46575000      0.86625000       344.30700       1.7701040     0.021826526
       1304.0000       293.16766       98543.547       14001.124       3.2615000      0.26550000    -0.066500000       344.29500       1.7604414     0.022077143
       1309.0000       293.13113       98545.443       13949.714       2.8225000      0.54000000     -0.20425000       344.49100       1.9502563     0.018238112
       1314.0000       293.13062       98548.467       13972.248       3.9025000      0.98000000     -0.21575000       343.35900       2.6654825     0.021647238
       1319.0000       293.08695       98543.485       13923.265       3.0317500     0.070750010     -0.16575000       344.06700       2.8881649     0.021961365
       1324.0000       293.01061       98542.269       13834.394       5.8382500      0.64200000     -0.11125000       343.92900       3.4118626     0.022815957
       1329.0000       292.98456       98547.228       13809.557       4.5357500      0.24525000      0.41525000       344.17000       3.2063365     0.022568257
       1334.0000       292.94714       98545.358       13752.837       4.3120000      0.46475000     -0.36650000       343.45400       3.9964522     0.025842319
       1340.0000       292.93565       98543.035       13756.716       4.1852500      0.13100000     -0.32775000       343.25100       2.9294775     0.021601479
       1345.0000       292.98778       98557.210       13858.593       3.1875000     -0.22975000      0.16075000       344.38300       2.9315897     0.021827203
       1350.0000       293.01799       98558.122       13921.325       3.9307500      0.22075000     -0.58600000       343.45700       2.5357646     0.023048702
       1355.0000       293.03166       98537.080       13981.418       2.4722500     -0.21250000      0.36475000       343.88700       2.9153513     0.024274768
       1360.0000       293.06802       98537.818       14038.011       2.8730000     -0.11525000     -0.14600000       344.22300       3.1076619     0.023699956
       1365.0000       293.14171       98556.307       14103.781       2.7327500      -1.7352500      0.32150000       344.03700       2.5621823     0.025343618
       1370.0000       293.17504       98557.374       14162.918       1.8437500     -0.99575010      0.78775010       344.82300       2.5896892     0.021442702
       1375.0000       293.21054       98554.135       14219.504       2.5365000      0.14050000      0.66225000       344.62500       2.6229215     0.021992851
       1380.0000       293.20831       98557.142       14257.067       5.4232500    -0.090000000     -0.24550000       343.53800       3.4241181     0.024838974
       1385.0000       293.15894       98558.847       14291.052       4.8222500      0.96175000     -0.28025000       343.83900       2.9091752     0.022288299
       1390.0000       293.13877       98552.621       14314.167       3.7097500      0.42375000       1.2732500       344.03700       4.2287409     0.025412897
       1395.0000       293.12290       98543.436       14325.927       3.9172500      0.80475000     -0.19000000       343.59100       4.5202671     0.025139699
       1400.0000       293.07616       98545.755       14309.920       3.3870000       1.1625000       1.1452500       344.48800       4.8999967     0.026727797
       1405.0000       293.02569       98547.490       14281.920       3.6800000     -0.87450000    -0.050250000       344.40900       4.6717493     0.026511477
       1410.0000       292.96949       98542.507       14241.425       4.6467500      0.15450000     0.053500000       343.67600       3.6659708     0.023497789
       1415.0000       292.87044       98545.611       14163.277       2.9062500     -0.64275000     -0.40000000       343.97500       3.9765101     0.026923360
       1420.0000       292.80705       98547.369       14100.687       2.7100000      -1.2070000      0.11700000       343.40500       2.8765546     0.027000305
       1425.0000       292.77102       98533.017       14046.680       3.3225000      -1.6217500    -0.058500000       343.49600       2.4330366     0.021511827
       1431.0000       292.71065       98532.854       13963.185       3.5027500      -1.0095000     -0.22050000       343.19800       2.2026214     0.022344084
       1436.0000       292.64264       98551.300       13860.751       3.0472500      -1.1767500     0.083500010       343.98700       2.4651591     0.020552630
       1441.0000       292.63035       98554.776       13829.968       2.9685000      -1.7137500     -0.14700000       343.66400       2.0230065     0.018157869
       1446.0000       292.65264       98548.570       13822.062       3.4065000    -0.016250000     0.059750000       343.70900       1.7329892     0.020298820
       1451.0000       292.64260       98552.316       13822.435       2.7040000      -2.1717500      0.10200000       343.59800       1.9083756     0.019849494
       1456.0000       292.64751       98562.048       13861.777       3.0012500      -1.0592500      0.12300000       343.39000       2.4017554     0.019848426
       1461.0000       292.65717       98560.359       13906.900       2.1610000      0.78150000   -0.0037500000       343.61100       2.0670251     0.017322084
       1466.0000       292.65148       98554.587       13969.604       2.6300000      0.57550000     -0.20550000       343.71000       2.1845866     0.019799684
       1471.0000       292.64123       98556.459       13994.108       2.5160000     0.025000000    -0.033500000       343.66000       2.0867433     0.019073454
       1476.0000       292.64838       98557.801       14023.755       2.2777500     -0.78875010     -0.11975000       343.46600       1.9965576     0.019691096
       1481.0000       292.65819       98551.077       14062.186       2.4372500      -1.1210000     0.037000000       343.40200       3.1098257     0.022512271
       1486.0000       292.65141       98543.700       14076.491       2.2765000     -0.63175000      0.18800000       343.52800       4.0862071     0.024105255
       1491.0000       292.64093       98546.518       14088.153       1.7715000      0.49625000    -0.040000000       344.11700       4.4347556     0.027255100
       1496.0000       292.65640       98546.501       14131.637       3.0902500     -0.70325010     -0.22350000       343.90600       3.9627277     0.023831776
       1501.0000       292.64781       98541.498       14141.951       2.4807500      0.91475000      0.43775000       344.17600       3.6941152     0.022956588
       1506.0000       292.59655       98544.226       14104.812       3.6912500      0.36100000      0.43450000       343.87000       3.6606941     0.021749678
       1511.0000       292.58520       98549.144       14096.942       3.9480000      0.33825000     -0.47750000       343.05700       3.7318231     0.021515707
       1516.0000       292.60912       98544.163       14120.372       4.6952500      0.67500000      0.22425000       343.96100       3.6097896     0.023044848
       1522.0000       292.58448       98543.101       14084.153       2.8702500      0.25300000     -0.45150000       344.07600       3.7742880     0.023364304
       1527.0000       292.55628       98557.552       14034.006       1.8595000     -0.88050000      0.77425000       344.41200       3.2104542     0.018641003
       1532.0000       292.48400       98547.800       13932.683       4.1997500      0.79925010    0.0067500000       343.99400       2.9367829     0.019518016
       1537.0000       292.44210       98543.373       13861.529       2.9292500    -0.073500000     -0.31100000       344.21600       2.2820607     0.022102919
       1542.0000       292.39940       98550.342       13768.661       4.4635000      0.83450000      0.20525000       343.77500       1.8757305     0.018520742
       1547.0000       292.38722       98551.549       13724.574       4.2972500       1.2070000     -0.44525000       343.62900       2.6180233     0.019122364
       1552.0000       292.43033       98542.873       13741.303       4.2855000      0.33725000      0.25575000       343.51300       2.1521980     0.019376620
       1557.0000       292.45022       98543.480       13745.686       3.5250000    -0.031250000      0.12050000       343.70000       2.2117842     0.020429531
       1562.0000       292.47005       98547.768       13760.991       3.0800000       1.1007500     -0.13650000       343.93200       2.5165524     0.018950241
       1567.0000       292.51304       98554.378       13812.948       4.2135000       1.1015000      0.11700000       344.03500       2.3840280     0.017633811
       1572.0000       292.50020       98559.532       13815.834       5.1922500       1.2430000       1.2525000       343.88300       2.1611930     0.018927626
       1577.0000       292.45014       98571.998       13791.208       3.0872500       4.2612500      0.12800000       343.69700       1.8544196     0.018336455
       1582.0000       292.41531       98577.772       13800.571       2.8767500      0.23050000      0.56300000       344.30100       1.8824108     0.016318982
       1587.0000       292.39381       98573.525       13806.643       4.0717500       1.3577500     -0.40925000       343.86300       1.8509018     0.017709423
       1592.0000       292.41476       98547.645       13867.045       2.2422500       1.9250000      0.33000000       344.48800       1.8990974     0.021812160
       1597.0000       292.40596       98542.078       13864.653       4.5667500       1.2132500     -0.64700000       344.24300       1.9109976     0.021678432
       1602.0000       292.38487       98542.663       13827.733       3.6952500      0.76750000      0.34900000       344.10400       1.9215227     0.021109876
       1608.0000       292.34711       98544.048       13741.068       4.6255000       1.5882500     -0.38250000       343.27400       1.8895777     0.019259709
       1613.0000       292.32398       98541.163       13671.402       3.4965000       1.8397500   -0.0077500000       343.67600       1.9000603     0.017615783
       1618.0000       292.29380       98546.276       13605.660       3.6547500      0.43200000      0.17150000       343.36200       1.8552273     0.015649639
       1623.0000       292.25126       98546.696       13543.053       3.0255000      0.23025000      0.83250000       343.91100       1.8649252     0.016807899
       1628.0000       292.24225       98544.014       13507.890       3.0242500       1.4435000    -0.039750000       343.68900       1.8923645     0.016440615
       1633.0000       292.24371       98553.937       13467.063       3.8765000       2.4370000     -0.57650000       343.15600       1.8298438     0.017454551
       1638.0000       292.24515       98558.363       13448.371       5.3870000      0.77600000     -0.26500000       343.57400       1.8652332     0.017939715
       1643.0000       292.26144       98548.061       13451.888       3.6195000       2.7805000    0.0067500000       343.37100       1.8531816     0.017902839
       1648.0000       292.30226       98543.322       13490.938       5.0935000       1.2675000      0.14775000       343.60000       1.8744962     0.016944866
       1653.0000       292.38101       98546.049       13582.062       2.9207500       3.2840000      0.60400000       343.93300       1.8884866     0.017167545
       1658.0000       292.40976       98545.975       13635.624       2.3105000      0.52125000      0.35250000       344.07000       1.8275355     0.019341831
       1663.0000       292.43158       98540.027       13700.446       4.3230000       1.0992500     -0.17925000       343.45600       1.9090706     0.018703860
       1668.0000       292.46085       98539.331       13768.489       5.8470000       2.1522500      -1.3707500       343.64500       1.8769726     0.020595918
       1673.0000       292.47231       98543.675       13837.396       3.8342500       1.8842500   -0.0037500000       343.66700       1.8751930     0.018159738
       1678.0000       292.45128       98545.711       13857.987       6.5790000       1.6310000      0.48125000       343.41100       1.9025440     0.019523769
       1683.0000       292.46497       98546.474       13903.144       3.6677500       2.2647500     -0.46900000       343.31700       1.8862996     0.017168572
       1688.0000       292.41045       98550.553       13876.715       1.9055000      0.89050010      0.23475000       343.63900       1.8966090     0.017381952
       1693.0000       292.22008       98561.507       13722.830       5.1822500       2.2790000    -0.060750000       343.49300       1.9060968     0.016428968
       1699.0000       292.10662       98561.812       13615.463       3.5325000       1.4220000     -0.25900000       343.48500       1.8244321     0.020870837
       1704.0000       292.00356       98553.840       13508.748       2.8682500       1.3877500      0.38650000       343.79700       1.8767049     0.017175512
       1709.0000       291.96866       98555.225       13441.644       2.7457500       1.6717500     -0.10975000       343.79400       1.8283413     0.018640825
       1714.0000       292.05129       98557.176       13432.519       3.3687500       3.9435000      -1.1442500       343.00200       1.8988961     0.015637325
       1719.0000       292.05765       98554.189       13389.683       3.6355000       2.1580000     -0.61350010       343.68900       1.8522031     0.018628039
       1724.0000       292.05688       98553.645       13336.036       4.0107500       4.1385000    -0.044500000       342.98900       1.8763909     0.017441406
       1729.0000       292.05286       98556.626       13298.219       3.9445000       2.1332500    -0.027750000       343.42400       1.8587899     0.016292984
       1734.0000       292.01782       98559.749       13249.653       4.5407500       2.2842500     -0.67150000       343.26700       1.8527893     0.017194635
       1739.0000       291.98796       98554.081       13222.757       2.7115000       2.7345000      0.46000000       343.39700       1.9241503     0.015990870
       1744.0000       291.96271       98543.378       13212.356       3.6197500       2.8110000    -0.078000000       342.98800       1.8769793     0.018434660
       1749.0000       291.94258       98545.092       13217.766       2.4067500       2.0580000     -0.56925000       343.19100       1.8679213     0.016507303
       1754.0000       291.89341       98546.025       13229.431       2.1830000       1.5072500     -0.13025000       343.60900       1.9210087     0.015774693
       1759.0000       291.89107       98543.754       13266.312       3.0815000       1.2570000     -0.17325000       343.52900       1.8659073     0.016395335
       1764.0000       291.95148       98552.509       13358.941       3.7290000       2.5005000     0.023750000       343.47400       1.8461033     0.016876191
       1769.0000       291.95802       98558.870       13401.400       2.8555000       2.0960000      0.28875000       343.59600       1.8648250     0.015856087
       1774.0000       291.94429       98557.194       13417.807       4.4655000       3.4075000     -0.59375000       343.18000       1.8483424     0.016730874
       1779.0000       291.95425       98554.249       13463.432       2.5777500       2.3760000     -0.31125000       343.57100       1.8942911     0.017405507
       1784.0000       291.96917       98557.811       13523.383       3.0887500       3.7122500     -0.37250000       343.10100       1.8701077     0.018334435
       1790.0000       291.93895       98556.007       13535.766       2.7475000       1.9190000     -0.36925000       343.31400       1.9096831     0.016466603
       1795.0000       291.90456       98537.260       13552.325       3.3740000       1.1925000    -0.079000000       343.59300       1.8692004     0.016556267
       1800.0000       291.89506       98538.021       13546.242       2.3477500       1.0702500      0.35650000       343.56300       1.9258372     0.016265501
       1805.0000       291.83221       98553.144       13458.648       3.2917500       1.3810000      0.18050000       343.33200       1.8709482     0.016214669
       1810.0000       291.84059       98559.166       13442.777       1.7270000       1.8367500     -0.10325000       343.77400       1.8709345     0.017591749
       1815.0000       291.93067       98572.369       13462.582       2.4545000       2.4505000    -0.067250010       343.23000       1.8609792     0.017189566
       1820.0000       291.98033       98573.188       13487.292       1.9680000       1.4167500      0.64575000       343.65100       1.8028236     0.017890472
       1825.0000       292.05218       98563.096       13556.131       1.5125000       1.3725000      0.17150000       343.69300       1.7851387     0.018303954
       1830.0000       292.06962       98557.570       13566.494       2.4797500       1.9295000     -0.23325000       343.52600       1.8525419     0.018220749
       1835.0000       292.04642       98542.988       13557.394       1.4897500      0.97825000     -0.45150000       343.48800       1.7933240     0.018689908
       1840.0000       292.05627       98543.221       13560.618       2.7547500      0.85225000     -0.46425000       343.38100       1.8144651     0.017468051
       1845.0000       292.05377       98555.278       13536.825       2.4012500       1.9942500     -0.32950000       343.39700       1.8438652     0.019470213
       1850.0000       292.04336       98556.681       13519.978       2.3310000       2.5607500     -0.35550000       343.47300       1.8117094     0.018268421
       1855.0000       292.05689       98559.376       13525.536       3.2565000       2.9630000    -0.063000000       343.22500       1.8462367     0.017335675
       1860.0000       292.05079       98562.797       13516.660       3.5892500       3.7040000     -0.68675010       343.22700       1.8118359     0.018869691
       1865.0000       292.01204       98562.420       13489.177       2.4015000       1.7985000      0.25000000       343.22700       1.8300651     0.018438799
       1870.0000       291.98229       98558.914       13460.619       3.6945000       3.1012500     -0.11225000       343.33200       1.8810011     0.016831431
       1875.0000       291.94719       98554.300       13417.878       3.3510000       2.4580000   -0.0070000000       343.44400       1.8712765     0.016233828
       1881.0000       291.94437       98556.407       13419.365       1.7712500       1.2877500      0.29000000       343.45400       1.9201531     0.015158315
       1886.0000       291.95214       98557.687       13429.926       4.4472500       1.8502500      0.78975000       343.56400       1.8918045     0.016865879
       1891.0000       291.94189       98550.878       13437.222       3.3110000       1.0000000     -0.22150000       343.34400       1.8894358     0.016675539
       1896.0000       291.95662       98543.444       13487.378       3.2017500       2.6382500      0.51375000       343.00800       1.8955190     0.016337474
       1901.0000       291.94800       98546.228       13493.797       3.6455000       3.3555000      -1.2980000       343.19000       1.8875620     0.017649932
       1906.0000       291.89678       98546.519       13463.766       3.8025000       3.4007500     -0.15725000       343.03800       1.8937429     0.015624155
       1911.0000       291.88565       98541.694       13451.528       2.6705000       2.7600000     -0.31600000       343.37300       1.8973713     0.017183633
       1916.0000       291.90933       98544.242       13448.638       2.3082500       2.4500000      -1.2222500       343.28400       1.8645285     0.016873427
       1921.0000       291.89097       98549.207       13423.375       2.7847500       4.1912500     -0.72400000       343.14600       1.8530773     0.016717875
       1926.0000       291.85547       98546.331       13379.033       1.7677500       2.8755000     0.038500000       343.36900       1.8373152     0.018668095
       1931.0000       291.83541       98541.487       13353.444      0.99075010       2.4772500     -0.25850000       343.43400       1.8934573     0.016201091
       1936.0000       291.79754       98543.237       13315.356       2.7950000       3.3932500     -0.41200000       342.92300       1.8991614     0.014690816
       1941.0000       291.78621       98550.253       13308.779       3.1077500       2.1260000      0.16400000       343.34600       1.9208000     0.015929959
       1946.0000       291.79993       98551.999       13322.131       3.8347500       3.2467500     -0.33850000       343.00500       1.9578766     0.014448995
       1951.0000       291.79993       98547.132       13341.699       3.7947500       2.3962500    -0.056500000       343.17700       1.9229849     0.015648360
       1956.0000       291.80884       98549.127       13391.030       3.2162500       3.2165000    -0.029750000       343.31600       1.8916012     0.017573831
       1961.0000       291.79014       98555.099       13396.834       2.2230000       1.2537500     0.048000000       343.50800       1.8283129     0.016800636
       1966.0000       291.75477       98551.297       13387.590       4.2632500       2.5840000      -1.4225000       343.23300       1.8676361     0.017960754
       1972.0000       291.73051       98544.219       13397.550       3.1857500       1.3705000     -0.30675000       343.13400       1.8588781     0.016660009
       1977.0000       291.69388       98550.192       13387.267       3.7690000       2.1647500      0.29650000       343.36900       1.8882383     0.016318896
       1982.0000       291.68524       98556.340       13397.876       2.7382500       1.8267500       1.1350000       343.14500       1.9225099     0.014261980
       1987.0000       291.69390       98550.408       13422.330       2.7770000      0.35900000      0.36900000       343.35600       1.9174174     0.015575171
       1992.0000       291.74554       98545.930       13470.692       2.9115000       1.5405000      0.13600000       343.31000       1.8900042     0.015621098
       1997.0000       291.75650       98551.014       13483.794       4.2715000     -0.17375000      0.75900010       343.19600       1.9052960     0.016766522
       2002.0000       291.74021       98551.948       13470.824       4.8980000       1.1557500      0.13450000       343.10600       1.8793851     0.016490186
       2007.0000       291.75030       98544.960       13489.007       3.8510000       1.0905000     -0.23150000       343.26800       1.8481458     0.016630270
       2012.0000       291.76045       98539.222       13509.833       3.8047500       1.2945000     -0.14575000       343.26700       1.8975249     0.016493427
       2017.0000       291.74976       98544.637       13514.939       4.5312500       2.2385000     -0.37500000       343.19000       1.8766344     0.016528446
       2022.0000       291.73992       98551.622       13504.973       3.7645000       2.2575000      0.20575000       343.28800       1.8535685     0.016774305
       2027.0000       291.74362       98549.612       13506.376       2.9992500       2.5802500      0.76975010       343.21900       1.8467655     0.015984415
       2032.0000       291.79085       98554.622       13547.583       1.8175000       2.8047500     -0.35975000       343.30500       1.8988095     0.015756839
       2037.0000       291.80130       98562.062       13553.030       2.1942500       1.6847500      0.41200000       343.49400       1.8572144     0.018787488
       2042.0000       291.82514       98562.868       13583.646       1.7965000      0.52125000      0.22675000       343.60000       1.8998517     0.016229620
       2047.0000       291.85590       98556.074       13616.117       1.8142500      0.61325000     -0.18400000       343.59400       1.9142489     0.015723949
       2052.0000       291.87431       98548.044       13632.611       4.0157500       1.3860000     -0.38600000       343.14200       1.8972932     0.015685135
       2058.0000       291.84743       98544.724       13594.358       2.2305000      0.65025000      0.22150000       343.45100       1.8591813     0.011001648
       2063.0000       291.86989       98546.490       13606.028       2.7300000       1.1637500     -0.18025000       343.38700       1.8683601     0.017018604
       2068.0000       291.85721       98543.642       13603.207       2.4620000       1.5937500    -0.087000000       343.15800       1.8582189     0.017360935
       2073.0000       291.78887       98550.780       13568.441       4.8765000       1.5112500     -0.37225000       343.27600       1.8917268     0.016247753
       2078.0000       291.73854       98557.519       13537.762       2.8300000      0.58475010     -0.15325000       343.31800       1.8601327     0.017455231
       2083.0000       291.67556       98557.625       13513.832       3.4147500       1.4430000      0.52050000       343.48500       1.8366975     0.017805247
       2088.0000       291.63735       98554.624       13488.770       2.4292500     0.010500000      0.10650000       343.53700       1.8623617     0.016676424
       2093.0000       291.59526       98552.936       13436.975       2.2470000       1.2655000     -0.41425000       343.53000       1.8241730     0.018376171
       2098.0000       291.58748       98555.938       13416.253       3.4050000       1.2380000      0.14800000       343.44500       1.8574844     0.011038100
       2103.0000       291.63378       98557.560       13426.581       3.3712500       2.3475000     -0.12850000       343.32700       1.8397642     0.016260619
       2108.0000       291.65412       98554.533       13424.660       1.7012500      0.90300010      0.47300000       343.60600       1.8397347     0.017108446
       2113.0000       291.67566       98552.814       13422.646       3.4757500       1.2330000      0.31325000       343.47300       1.8504984     0.017702044
       2118.0000       291.70583       98555.858       13435.058       3.3737500       1.8745000      0.13100000       343.06200       1.9639018     0.014266439
       2123.0000       291.74868       98557.853       13460.818       3.9452500       1.8427500     -0.24925000       343.08600       1.9816980     0.013842810
       2128.0000       291.75795       98554.918       13469.826       3.2502500       1.7322500     -0.24350000       343.26400       1.9564279     0.014213004
       2133.0000       291.75631       98552.991       13481.056       1.3562500       1.6037500      0.28875000       343.51500       1.9223246     0.016082976
       2138.0000       291.75497       98555.975       13493.369       1.6440000       1.9500000      0.15000000       343.42600       1.8844102     0.016436370
       2143.0000       291.72447       98557.535       13502.777       2.4585000       2.1185000      -1.0695000       343.19800       1.9182603     0.015977851
       2149.0000       291.68850       98553.908       13489.053       2.5355000       2.5920000      0.33150000       343.06500       1.8681540     0.014712500
       2154.0000       291.63636       98553.489       13447.813       2.8290000       1.6077500      0.32925000       343.29100       1.8425407     0.017760906
       2159.0000       291.64402       98556.593       13456.741       3.3907500       1.1337500     -0.52875000       343.24000       1.8706117     0.016456317
       2164.0000       291.69529       98557.278       13490.166       2.5727500       1.1345000     0.097750010       343.13400       1.8338196     0.017554636
       2169.0000       291.70536       98554.309       13492.511       3.3642500       1.2915000      0.22350000       343.35300       1.9118100     0.015738061
       2174.0000       291.75272       98553.521       13533.250       1.9607500      0.95525000     0.018000000       343.51400       1.9460030     0.014995147
       2179.0000       291.76514       98556.525       13532.919       2.6305000       1.7790000     -0.71125000       343.52700       1.8215874     0.016588429
       2184.0000       291.71830       98559.700       13470.452       1.7682500       1.1640000       1.0845000       343.46100       1.8427981     0.017786971
       2189.0000       291.68855       98553.973       13430.377       1.7225000      0.87050000     -0.25150000       343.52700       1.8614702     0.015847867
       2194.0000       291.64929       98543.511       13382.209       4.0090000       1.1795000     -0.38600000       343.30800       1.9229234     0.016218547
       2199.0000       291.64292       98545.244       13358.771       3.2525000       1.6735000     -0.44125000       343.26400       1.8466773     0.017104964
       2204.0000       291.64341       98548.312       13335.981       2.2292500       1.7512500    -0.020250000       343.33400       1.9593504     0.015488110
       2209.0000       291.64713       98543.238       13330.350       2.1902500      0.72075000      0.15300000       343.55200       1.8977838     0.016166826
       2214.0000       291.69534       98542.071       13362.735       2.5995000      0.95850000      0.19450000       343.54300       1.9249810     0.013709423
       2219.0000       291.71199       98547.014       13376.345       3.5762500      0.85700010      0.24575000       343.10100       1.9075087     0.014992019
       2224.0000       291.68720       98548.135       13376.732       2.7560000      0.38175000      0.49650000       343.36000       1.9333088     0.015052366
       2229.0000       291.70091       98543.116       13397.080       2.3202500      0.85700010      0.34250000       343.61100       1.8998411     0.015761321
       2234.0000       291.75084       98542.461       13436.498       3.7327500      0.20525000      0.21875000       343.16300       1.8664364     0.015817173
       2240.0000       291.75683       98548.415       13457.001       3.8187500       1.5962500    -0.072500010       343.52100       1.9102988     0.015514248
       2245.0000       291.74649       98547.255       13460.630       3.2905000       1.6217500     -0.20575000       342.81900       1.9177763     0.015475849
       2250.0000       291.75696       98542.186       13498.417       2.9167500       1.4035000     -0.64800000       343.14900       1.8864339     0.016936361
       2255.0000       291.75400       98543.034       13551.807       3.1977500       1.2082500    -0.041250000       343.36700       1.9701677     0.013055044
       2260.0000       291.74389       98548.018       13573.240       1.4602500       1.1662500       1.0010000       343.51900       1.9796107     0.014825144
       2265.0000       291.74604       98547.127       13607.168       2.4720000       1.1585000     0.057500000       343.38500       1.9898470     0.015330995
       2270.0000       291.75582       98542.134       13632.877       2.1692500      0.85800000      0.51425000       343.52400       1.9542589     0.015098650
       2275.0000       291.74292       98543.109       13620.745       2.2662500       1.7035000     0.052250000       343.36600       1.8819608     0.016790008
       2280.0000       291.74915       98548.028       13624.954       2.5617500       1.1247500     0.059500000       343.33300       1.9513252     0.014743171
       2285.0000       291.78785       98547.081       13647.528       1.9792500      0.84900000      0.29250000       343.65000       1.9722994     0.015201531
       2290.0000       291.81805       98542.111       13669.890       3.3267500      0.98750010     -0.18425000       343.15900       1.9419568     0.016111593
       2295.0000       291.83095       98543.164       13672.485       3.0847500       1.1257500     -0.21900000       343.06900       1.9556274     0.014838850
       2300.0000       291.86739       98548.288       13700.260       3.0640000       1.5272500     0.021000000       343.25000       1.9027390     0.016691153
       2305.0000       291.95372       98545.473       13778.741       2.7952500      0.98625000     0.082750010       343.21700       1.8814828     0.011733381
       2310.0000       291.97170       98543.775       13794.695       1.9582500      0.26675000      0.27500000       343.54900       1.9034888     0.017343899
       2315.0000       291.94647       98553.953       13773.710       1.6427500      0.85800000     0.063500000       343.40400       1.9263714     0.016132810
       2320.0000       291.95654       98559.666       13778.036       1.6487500      0.78050010     -0.12425000       343.49100       1.9375864     0.016786821
       2325.0000       291.95375       98556.367       13770.500       1.8165000       1.4240000      0.15025000       343.48900       1.9530967     0.016866775
       2331.0000       291.94195       98552.815       13750.416       1.8635000      0.91425000     -0.51475000       343.63500       1.9071314     0.016745703
       2336.0000       291.95661       98554.727       13742.346       1.9425000       1.1122500     -0.34225000       343.58400       1.9134712     0.015581212
       2341.0000       291.94801       98557.842       13735.898       3.5602500       1.0272500     -0.10575000       343.42100       1.9297821     0.015877908
       2346.0000       291.89631       98555.990       13706.486       2.8370000       1.4677500      0.18850000       343.06400       1.9868383     0.015248360
       2351.0000       291.88483       98552.975       13694.975       3.1370000      0.56425010     -0.56250000       343.41500       1.8784250     0.016112262
       2356.0000       291.89173       98556.505       13709.731       3.4530000       1.8112500     -0.17625000       342.95200       1.9225365     0.016444683
       2361.0000       291.91064       98555.735       13709.693       3.7530000       1.3735000      0.37850000       343.25700       1.9012251     0.016033223
       2366.0000       291.95479       98543.922       13704.173       3.0290000       1.5510000      0.10825000       343.28800       1.9634010     0.016324264
       2371.0000       291.95617       98542.496       13682.792       3.8387500       2.0222500     -0.20900000       343.35500       1.9456654     0.014460485
       2376.0000       291.98585       98550.640       13671.863       2.8807500      0.97525010      0.18000000       343.32600       1.9951027     0.010588026
       2381.0000       291.91970       98551.789       13619.509       3.7795000       2.2305000     -0.15875000       342.92600       2.0079851     0.014941913
       2386.0000       291.76830       98550.524       13525.201       2.8935000       1.4545000     -0.25150000       342.95700       1.9086149     0.016437351
       2391.0000       291.67785       98550.630       13458.881       3.6575000       1.6665000     -0.19700000       342.86000       1.9977774     0.014560406
       2396.0000       291.54334       98548.547       13376.496       3.3257500       1.7582500     -0.26225000       342.92500       1.9961286     0.015310606
       2401.0000       291.48906       98552.352       13327.379       2.9880000     0.070750010      0.40375000       343.42700       1.9841885     0.016049261
       2406.0000       291.48794       98559.716       13288.562       2.2407500     0.087750000      0.37350000       343.47300       1.9569333     0.015413907
       2411.0000       291.49516       98563.745       13282.941       3.5232500       1.0485000    -0.034500000       343.19400       1.9674707     0.016175872
       2416.0000       291.54562       98573.782       13302.735       2.9555000       1.3745000    -0.025250000       343.08600       2.0212569     0.015902258
       2422.0000       291.57011       98568.882       13340.481       2.8265000      0.78625010      0.30025000       343.38000       1.9181282     0.015978098
       2427.0000       291.60584       98553.452       13409.169      0.98675010       1.0720000      0.22575000       343.54600       1.9984583     0.015954099
       2432.0000       291.60004       98561.370       13422.638       2.5737500       1.2552500     -0.12625000       343.24100       1.9877339     0.015034910
       2437.0000       291.60004       98556.734       13458.229       1.2870000      0.99875000      0.15600000       343.45100       1.9163250     0.014564164
       2442.0000       291.58485       98543.210       13484.022       1.7922500       1.4917500     -0.28050000       343.38200       1.9917705     0.014462515
       2447.0000       291.59352       98543.959       13530.125       2.0357500      0.69700000    -0.034750000       343.53900       1.9670456     0.015214108
       2452.0000       291.62999       98550.210       13650.949       2.3780000       1.8810000     -0.37375000       343.33200       1.9686721     0.014977940
       2457.0000       291.64978       98545.208       13706.940       3.6622500       1.0382500     -0.29450000       343.39400       1.9858311     0.015630273
       2462.0000       291.66957       98540.221       13735.691       2.0222500       1.0617500     -0.20850000       343.32500       1.9971235     0.017054442
       2467.0000       291.69986       98545.832       13747.577       1.7727500       1.1307500     0.078250010       343.23100       2.0024825     0.015378486
       2472.0000       291.73006       98550.870       13748.489       1.9895000       1.1960000     -0.26475000       343.36800       1.9569883     0.016125491
       2477.0000       291.74985       98545.358       13701.141       2.4345000      0.38450000    -0.095750000       343.26200       1.9905015     0.014710409
       2482.0000       291.76985       98540.052       13673.181       1.7665000       1.5395000      0.66450010       343.70800       2.0074286     0.016184323
       2487.0000       291.79991       98544.976       13672.359       1.5697500       1.2657500      0.20025000       343.65200       1.9989762     0.015373889
       2492.0000       291.81525       98550.170       13687.783       1.8862500      0.99175010     -0.14825000       343.30000       1.9371945     0.014160158
       2497.0000       291.84372       98545.168       13695.663       1.6535000       1.2037500    -0.053750000       343.08700       1.9245281     0.015194162
       2502.0000       291.88449       98540.181       13711.429       1.5732500      0.57350000      0.54450010       343.46400       1.9370914     0.016095652
       2507.0000       291.96235       98545.872       13765.683       2.0195000       1.3062500    -0.094500010       343.13400       1.9298420     0.011682018
       2513.0000       291.95609       98546.684       13712.357       2.0595000      0.68625000      0.40850000       343.27500       1.9035614     0.015281083
       2518.0000       291.95494       98543.950       13702.443       2.1350000       1.3377500     -0.47275000       343.10900       1.9485050     0.015630188
       2523.0000       291.92352       98553.594       13703.820       1.7282500      0.84400000     0.084500010       343.40100       1.8925387     0.015173840
       2528.0000       291.89341       98558.087       13693.227      0.93725000      0.36050000     0.046750000       343.55900       1.9411581     0.015521591
       2533.0000       291.85168       98546.585       13691.097       2.0305000      0.43075000      0.19375000       343.47600       1.8863008     0.015167471
       2538.0000       291.84310       98543.031       13701.070       2.2277500      0.82775000      0.41450000       343.64100       1.9063980     0.015039141
       2543.0000       291.85781       98549.391       13718.156       1.6242500      0.75475000      0.30575000       343.47900       1.8813883     0.013164168
       2548.0000       291.84774       98551.270       13710.838       1.6500000       1.1940000     -0.35875000       343.20600       1.8832072     0.014966833
       2553.0000       291.84260       98550.500       13702.947       1.5765000      0.45450000      0.49200000       343.45400       1.8995898     0.015041896
       2558.0000       291.85269       98550.598       13702.119       2.2047500      0.54875000     -0.13175000       343.58200       1.9864826     0.013302543
       2563.0000       291.84450       98551.708       13669.865       1.8232500      0.76425000      0.45175000       343.49400       1.8960076     0.013755278
       2568.0000       291.84570       98550.583       13657.799       3.1887500       1.0762500    -0.081500000       343.29200       1.8981493     0.012522827
       2573.0000       291.89018       98542.480       13663.948       2.2730000      0.41625000     0.068750000       343.61200       1.9032169     0.015999817
       2578.0000       291.90911       98543.747       13686.545       2.2450000      0.61775000      0.62925000       343.75800       1.9196473     0.013263672
