MIRICO/SHELL project - Processed LDS file generated on
Wed Jul 19 12:55:43 2017
Time stamp for record start
05/11/2017  15:22: 8.0000
Nb of points in the record
         511
Beam position index
       7.0000000
Beam angle (degrees)
       19.300000
Open Path length (m)
       33.730000
****************** Temporal data record ************************
Elapsedtime_sec Temp_K Press_Pa Humidity_ppmv WindX_m/s WindY_m/s WindZ_m/s Speedofsound_m/s CH4vmr_ppmv CH4vmrerror_ppmv  
      0.00000000       292.72476       98562.521       13407.380       1.5512500      0.77375000    -0.017750000       344.60800       1.9972640     0.020687973
       5.0000131       292.77677       98557.758       13416.539       1.4137500       1.5952500      0.18275000       344.45900       1.9950055     0.022481762
       10.000026       292.83680       98560.600       13450.382       1.0097500       1.8902500     0.019750000       343.72200       1.9954453     0.017566509
       14.999999       292.87372       98575.485       13501.060       1.0992500      0.98125000      0.66675000       345.08500       1.9719084     0.020151994
       20.000012       292.92964       98578.508       13540.417       1.4847500       2.6295000     0.046250000       344.04200       1.9825129     0.020390312
       25.000025       293.04070       98579.606       13609.078       1.3480000       2.2520000     -0.23250000       344.48500       1.9989036     0.020649096
       29.999998       293.08829       98574.286       13652.606       2.1305000       2.3830000     -0.17600000       343.83800       2.0000488     0.015716898
       36.000006       293.11242       98552.609       13683.478       1.4477500       2.3575000    -0.051250000       344.32500       1.9957055     0.016377071
       41.000019       293.10464       98552.983       13690.657       1.3837500       2.1702500     -0.19525000       344.54000       1.9854779     0.019519415
       45.999992       293.03603       98558.628       13671.570       1.8342500       2.1155000     -0.60150000       343.48800       1.9729754     0.017091590
       51.000005       293.05338       98561.282       13703.843       1.9890000       1.3632500     -0.50225000       344.37100       1.9977157     0.014749586
       56.000018       293.07219       98579.489       13731.777       1.8502500       2.5492500     -0.11200000       344.01800       2.0095151     0.020657665
       60.999991       293.13792       98576.439       13783.082       1.4987500       1.9257500     -0.17800000       343.83400       2.0199062     0.015451786
       66.000004       293.28863       98552.575       13889.309       2.2297500       1.0627500     0.095750000       344.76900       2.0084771     0.018914343
       71.000017       293.36901       98552.937       13961.267       2.9620000       1.4560000   -0.0062500000       344.48300       1.9886069     0.019431179
       75.999990       293.46090       98558.312       14036.467       2.2237500      0.84875010     -0.24725000       344.59300       2.0022061     0.019000246
       81.000003       293.48413       98561.134       14063.348       1.7792500      0.95400010    -0.088750000       344.53400       2.0027231     0.018937925
       86.000016       293.45639       98579.417       14089.652       2.5415000       1.6237500     -0.59975000       345.03700       1.9940447     0.015433139
       90.999989       293.44762       98576.280       14057.872       2.9330000       1.6822500       1.1497500       344.17500       1.9847577     0.015835614
       96.000002       293.41452       98552.521       13967.027       2.2410000       2.0927500     -0.31475000       344.39200       1.9642281     0.015750105
       101.00002       293.36578       98552.909       13871.283      0.45725000       1.3455000     -0.11600000       344.91700       1.9869091     0.018179733
       105.99999       293.30749       98560.309       13729.945     -0.32250000       4.0822500    -0.051500000       344.77700       2.0168784     0.023516823
       111.00000       293.26780       98559.289       13639.038       3.1842500       1.3210000      0.32200000       344.76900       1.9850874     0.023226058
       116.00001       293.21207       98567.642       13552.210       3.4232500       3.6130000     -0.83250000       343.54000       2.0014246     0.019158813
       121.00003       293.15235       98566.167       13453.350       4.1105000       3.2760000     -0.37225000       342.96700       2.0154862     0.021113795
       127.00000       293.07504       98546.412       13325.329       2.0747500       2.4715000     0.083750000       344.17900       2.0085605     0.017052948
       132.00001       293.12036       98550.264       13339.896      0.43625000       2.3430000      0.47475000       344.40500       2.0180111     0.020666865
       137.00002       293.18784       98567.571       13379.980       2.4632500       1.6035000    -0.064250000       343.86300       2.0452809     0.021162933
       141.99999       293.33970       98562.166       13510.266       1.7162500       1.3902500      0.61875000       345.44700       2.0753589     0.022033747
       147.00001       293.42599       98561.442       13606.686       1.9255000      0.45875000      0.38275000       343.72300       2.0417474     0.018975786
       152.00002       293.38534       98546.273       13620.383       3.3625000       2.4297500     -0.23500000       343.19400       2.0232033     0.022881243
       156.99999       293.39425       98541.597       13671.966       3.1625000       1.9200000     0.068750000       343.71000       2.0329663     0.017394241
       162.00001       293.41546       98544.296       13742.289       3.2155000       2.2812500     -0.22850000       343.43500       1.9866098     0.022211852
       167.00002       293.44201       98562.893       13844.115       2.3697500       1.6067500      0.54600000       344.53900       2.0134056     0.024487277
       171.99999       293.48350       98561.361       13924.040       3.6802500       2.4650000      0.28950000       344.84400       1.9137421     0.016041194
       177.00001       293.57414       98554.872       14037.516       5.0900000       3.7532500     -0.18575000       343.30400       2.0089212     0.016604550
       182.00002       293.50839       98553.973       13986.110       3.2047500       1.8737500     -0.30325000       343.11900       2.0005567     0.020339402
       186.99999       293.46057       98553.614       13947.826       4.0680000       1.3230000    -0.079500000       343.45800       1.9984435     0.017342925
       192.00000       293.29801       98570.325       13786.946       3.6717500       3.4130000      0.32675000       344.32600       1.9841944     0.017414834
       197.00002       293.22399       98573.934       13710.413       3.4482500       3.5190000      0.99900010       344.50800       1.9871138     0.019932276
       201.99999       293.23020       98555.278       13717.278       2.7550000       2.6350000    -0.028500000       343.77300       2.0340856     0.017531033
       207.00000       293.23763       98552.773       13705.510       4.8470000       3.3550000      0.19425000       343.65300       1.9900823     0.015764774
       212.00002       293.26958       98555.185       13705.050       2.4025000       2.2525000     -0.10125000       345.09000       1.9943126     0.021342490
       218.00002       293.36582       98559.105       13745.060       3.5505000       2.5907500     -0.40375000       343.87800       2.0215109     0.015834980
       223.00000       293.34157       98577.039       13679.735       2.4122500       2.3937500     -0.17625000       343.47100       2.0295491     0.019430377
       228.00001       293.35164       98579.232       13651.085       2.7682500       2.4707500     -0.20050000       343.66400       2.0325013     0.019109783
       233.00002       293.37308       98555.402       13604.299       3.1270000       2.4620000     -0.90475000       344.27700       2.0084158     0.016696821
       238.00000       293.35225       98551.913       13587.226       1.3467500       1.2055000     0.091750000       345.23800       1.9904011     0.020777213
       243.00001       293.36505       98562.387       13640.009       2.4450000       2.7000000      0.21925000       344.32800       1.9925779     0.024354121
       248.00002       293.31050       98560.243       13637.763       1.8642500       2.0602500      0.22975000       344.84200       1.9828848     0.021176692
       253.00000       293.10465       98561.763       13596.448       1.6177500       1.1765000      0.23600000       345.67900       2.0147386     0.019971726
       258.00001       293.01886       98562.367       13585.140       4.4792500       2.5247500     -0.15600000       344.53800       1.9839041     0.021918677
       263.00002       292.95054       98543.620       13565.387       3.5910000       2.0710000      0.33225000       344.95200       1.9669244     0.018007493
       267.99999       292.92574       98541.610       13545.877       3.3707500       2.7735000      0.17500000       344.63900       1.9710488     0.018905689
       273.00001       292.99720       98565.260       13530.157       2.4215000       2.5795000     -0.22425000       343.90500       2.0341073     0.020802214
       278.00002       293.05873       98568.699       13548.138       2.9495000       2.5805000     -0.29700000       344.02400       2.0362431     0.022695611
       282.99999       293.13087       98562.549       13571.086       2.9097500       2.3735000     -0.45350000       343.57600       2.0119578     0.017723711
       288.00001       293.21156       98561.365       13604.750       3.6187500       2.8017500     -0.16450000       343.50200       1.9775330     0.020442902
       293.00002       293.34828       98547.523       13678.343       2.9545000       1.9420000      0.53700000       344.12000       2.0199750     0.017933656
       297.99999       293.42523       98542.031       13755.253       4.0062500       2.3077500     -0.38600000       343.69500       2.0306279     0.017808748
       303.00001       293.49494       98550.678       13849.991      0.78975000       1.0375000       1.8162500       344.36600       2.0315282     0.021958565
       309.00001       293.52144       98551.166       13930.093       1.6425000       2.3540000      0.35650000       344.29300       2.0075306     0.021188758
       314.00003       293.51337       98541.437       14060.308       2.3015000       1.8932500    -0.037750000       344.48200       1.9879029     0.020937969
       319.00000       293.43815       98545.017       14058.780       2.6057500       3.6675000     -0.15325000       343.93000       2.0467448     0.025280705
       324.00001       293.26328       98560.055       13943.567       1.2305000       3.0472500      0.64175000       344.04700       2.0108587     0.018112668
       329.00003       293.15267       98562.399       13861.879       3.6875000       4.5772500     -0.27675000       344.08800       2.0255580     0.018627326
       334.00000       292.98176       98567.060       13699.561       5.1185000       5.1267500     -0.24650000       343.52100       2.0143726     0.019841334
       339.00001       292.89755       98567.618       13597.066       3.3930000       4.0060000    -0.030500000       343.61400       1.9878357     0.018236356
       344.00003       292.90502       98547.911       13527.248       4.1187500       4.2572500     -0.95875010       343.34800       2.0264125     0.017278225
       349.00000       292.88905       98547.332       13469.967       2.1690000       2.4155000     0.037500000       343.65800       2.0410558     0.020480465
       354.00001       292.88742       98566.916       13405.084       3.7037500       3.2112500     -0.19950000       343.69900       2.0236721     0.017233116
       359.00002       292.90142       98567.428       13395.181       2.7097500       2.7440000    -0.013500000       343.90700       2.0275347     0.018779038
       364.00000       292.90011       98558.162       13417.205       3.2922500       2.9200000     -0.12200000       343.86100       2.0101891     0.016879525
       369.00001       292.96125       98560.480       13477.595       5.1427500       1.9827500      0.42800000       343.64800       2.0194634     0.020389250
       374.00002       293.09715       98558.716       13616.813       4.3995000       1.5977500      0.49975000       344.12600       2.0070889     0.020104995
       379.00000       293.18639       98558.839       13712.708       2.4177500       3.0012500      0.45800000       344.03200       2.0522778     0.017120409
       384.00001       293.30949       98580.872       13818.405       3.5362500       2.2385000      0.62325000       343.60000       2.0306975     0.017918252
       389.00002       293.39152       98578.540       13923.951       3.2747500       2.5407500     -0.46275000       344.06500       2.0421366     0.019790251
       394.00000       293.41850       98544.243       13995.821       3.6770000       4.4115000     -0.35500000       343.22600       2.0256921     0.017593272
       400.00000       293.47849       98541.349       14130.094       2.6670000       4.7727500     -0.47425000       343.00100       2.0250483     0.016089982
       405.00002       293.54047       98547.087       14294.850       3.6915000       2.6772500    -0.052750000       343.81800       2.0414353     0.019801975
       409.99999       293.57435       98550.522       14406.342       3.5612500       2.6500000     -0.28275000       343.50500       2.0485005     0.018566455
       415.00000       293.61034       98577.892       14549.156       2.7507500       3.0670000      0.74675010       343.72400       2.0617099     0.017409745
       420.00002       293.60813       98581.083       14583.784       3.6020000       2.5967500      0.32125000       344.11100       2.0551089     0.020231745
       425.00003       293.58046       98558.526       14577.294       1.9542500       2.2047500      0.20725000       343.91200       2.0415721     0.016662117
       430.00000       293.52844       98558.003       14478.829       3.0197500       3.1615000     -0.60525000       343.87800       2.0601713     0.020686744
       435.00001       293.44202       98567.586       14254.843       3.5327500       3.0560000     0.046000000       343.54500       2.0344732     0.018400837
       440.00003       293.35527       98564.374       14080.429       2.5387500       2.5830000      0.39375000       343.52300       2.0420742     0.021971240
       445.00000       293.22941       98559.917       13831.124       2.5547500       2.4190000      0.29850000       343.99400       2.0300723     0.021718780
       450.00001       293.14540       98561.011       13668.412       2.1522500       1.7995000      -1.0977500       343.79300       2.0233617     0.018734848
       455.00003       293.05787       98552.131       13548.244       2.9165000       2.9812500     -0.21325000       343.77900       2.0076868     0.021864063
       460.00000       293.01006       98554.189       13439.540       2.8280000      0.61100000     0.077250000       344.29300       2.0097996     0.023121640
       465.00001       293.01149       98580.958       13358.553       2.4490000      0.74625000      0.30625000       344.26800       2.0532241     0.023716851
       470.00003       292.98163       98577.240       13288.992       4.3062500      0.72050010      0.64700000       344.33300       2.0138346     0.022221953
       475.00000       292.95818       98548.180       13227.301       5.4322500     0.081000000     -0.35850000       343.57800       2.0114606     0.019605730
       480.00001       292.93827       98547.203       13202.608       3.4360000     0.031000000      0.30975000       344.54600       2.0171718     0.014198720
       486.00002       292.91599       98548.557       13224.837       5.8602500       1.4680000     -0.27575000       343.99900       2.0269543     0.015413907
       490.99999       292.86698       98548.368       13212.276       4.4352500      0.33475000     -0.70825000       343.95600       2.0203286     0.018366927
       496.00001       292.82548       98568.162       13217.459       3.2487500      0.64300000      0.37800000       344.00000       1.9908652     0.017407442
       501.00002       292.74760       98569.024       13197.523       6.9077500     -0.34750000      0.26075000       344.00200       1.9994270     0.019276544
       505.99999       292.60934       98546.531       13133.005       5.1477500      0.45825000    -0.049000000       344.07000       2.0066690     0.019053725
       511.00000       292.52798       98548.669       13123.140       4.9782500       1.7872500     -0.44300000       343.63500       2.0686042     0.021036537
       516.00002       292.43880       98567.625       13119.524       4.1965000       1.7952500     0.078750010       343.62000       2.0200422     0.014962444
       520.99999       292.41513       98566.145       13162.476       4.1860000       1.2540000    -0.024750000       343.94100       2.0252396     0.015421214
       526.00000       292.45111       98560.311       13265.819       2.9942500       1.1852500      0.37875000       343.96800       2.0216294     0.016599591
       531.00002       292.44107       98561.276       13305.151       4.4815000      0.88450000     -0.12350000       343.20300       2.0221813     0.017210213
       535.99999       292.44858       98553.187       13349.260       4.5882500       1.4070000     -0.26325000       343.31400       2.0263646     0.015462442
       541.00000       292.45899       98554.762       13389.255       5.1467500       2.5207500     -0.40000000       343.25600       2.0485064     0.018112338
       546.00002       292.45259       98574.067       13390.946       3.2582500      0.72700010     0.061250000       343.73700       2.0066731     0.017450878
       550.99999       292.44267       98571.901       13414.899       4.5565000       1.2907500     -0.19500000       343.72800       2.0032467     0.020958643
       556.00000       292.46611       98553.002       13477.321       2.2195000       1.0435000      0.25300000       344.13800       2.0173644     0.020091784
       561.00001       292.43883       98554.568       13486.316       3.4390000      0.34175000      0.70800000       343.95800       2.0333318     0.018576971
       566.00003       292.36046       98561.495       13469.447       3.3860000      0.99000010     0.071750000       343.90800       1.9953311     0.019901858
       571.00000       292.31099       98558.687       13434.624       5.4690000       3.2142500     -0.11725000       343.47600       2.0019051     0.022924975
       577.00001       292.25185       98562.542       13365.183       4.7570000       2.1212500     -0.22275000       343.48300       2.0116030     0.018181812
       582.00002       292.20151       98560.103       13303.194       3.4270000       1.9527500     -0.50425000       343.26400       1.9895561     0.019115954
       586.99999       292.15057       98541.831       13219.049       2.9492500       2.6525000     -0.20725000       343.64600       1.9962885     0.019388303
       592.00001       292.08469       98553.338       13128.977       2.3602500      0.94775000      0.12250000       343.79300       2.0070715     0.017868525
       597.00002       292.04297       98560.360       13067.844       2.8515000       1.5602500     -0.17375000       343.87200       2.0034816     0.018214467
       601.99999       292.00016       98570.397       12992.235       3.4360000       2.2925000      0.35200000       344.00200       2.0035221     0.015790423
       607.00001       291.98815       98576.614       12968.685       3.6987500      0.29425000      0.56475000       343.72400       1.9967158     0.020728900
       612.00002       292.00078       98580.386       12982.423       7.4400010       2.1105000     -0.49125000       343.11700       2.0035303     0.015876123
       616.99999       292.04902       98582.717       13044.238       3.0725000       1.8107500      0.93425010       343.63400       1.9901739     0.017991211
       622.00001       292.06900       98577.028       13083.215       2.8835000       1.7890000      0.19850000       343.69800       1.9966264     0.014090036
       627.00002       292.09389       98565.303       13144.390       5.3340000       2.1970000     -0.33450000       343.10800       1.9940035     0.014466492
       631.99999       292.16108       98550.199       13230.936       4.7107500       2.0407500      0.23100000       343.49500       2.0137882     0.014438487
       637.00000       292.20148       98546.318       13303.702       3.8202500       1.7340000     -0.42075000       343.15400       2.0063962     0.014570015
       642.00002       292.30111       98565.350       13449.219       4.6845000       1.7082500      0.40425000       343.35700       1.9936938     0.019413746
       646.99999       292.32545       98567.740       13516.031       3.8240000       2.2320000     -0.24325000       343.33000       1.9967775     0.014458875
       652.00000       292.25549       98557.956       13519.074       3.7245000      0.92475000    -0.022000000       343.45900       2.0009359     0.015952825
       657.00002       292.20744       98559.905       13505.251       4.0082500      0.92525010      0.10225000       343.28400       1.9791001     0.017563074
       661.99999       292.14710       98563.075       13458.184       2.5500000       1.0520000      0.10950000       343.63200       2.0127839     0.020941834
       668.00000       292.03228       98558.958       13336.638       3.4820000       2.0532500      0.25575000       343.49700       1.9834422     0.021058304
       673.00001       291.99013       98565.902       13281.851       2.8012500       1.4397500     -0.33475000       343.51200       1.9838601     0.018991407
       678.00002       291.93967       98567.435       13206.542       2.2080000      0.83950010      0.29625000       343.76100       1.9822167     0.017487536
       683.00000       291.86109       98548.865       13097.179       2.2747500       1.7280000      0.10750000       343.68300       1.9626769     0.019257917
       688.00001       291.83304       98546.443       13037.836       1.8470000       1.7195000      0.11625000       343.87800       1.9791281     0.017294610
       693.00002       291.84391       98566.191       12981.542       1.8257500       2.3417500     0.091500010       343.51800       1.9887857     0.017265784
       698.00000       291.84521       98567.635       12948.498       3.5602500       2.7652500      -1.0017500       343.75800       1.9774457     0.022168011
       703.00001       291.87575       98558.170       12970.579       4.2612500       2.7735000     -0.73600010       343.65300       1.9597057     0.017429240
       708.00002       291.90564       98560.298       12986.503       2.0367500       2.5957500    -0.050500000       343.21400       1.9544786     0.017677182
       713.00000       291.94773       98562.195       13018.671       1.2355000      0.53350000      0.89550010       343.98900       1.9855120     0.015450892
       718.00001       291.95612       98559.279       13031.149       3.4462500       1.0370000      0.56575000       343.28400       1.9234976     0.014932631
       723.00002       291.92771       98566.117       13014.089       2.3530000       1.9132500      0.33325000       343.39700       1.9748125     0.018836211
       727.99999       291.94884       98567.685       13047.981       2.7172500       1.7155000    -0.098750000       343.62600       1.9611156     0.017773404
       733.00001       291.97755       98548.910       13096.456       2.8852500     -0.22475000      0.37275000       343.78100       1.9567983     0.018857799
       738.00002       291.99848       98546.776       13151.339       4.6785000       2.4472500     -0.48375000       342.91600       1.9979216     0.014782851
       742.99999       292.06594       98569.042       13272.211       2.9860000       4.2305000     -0.75525000       343.16900       1.9612946     0.019912836
       748.00001       292.11427       98568.353       13355.485       2.8637500       2.2740000    -0.042000000       342.97600       1.9645395     0.019630078
       753.00002       292.13340       98548.593       13433.276       2.6342500      0.86475000     -0.29625000       343.60900       1.9617107     0.014481921
       759.00003       292.15747       98549.440       13480.980       3.2170000       1.8045000   -0.0087500000       343.57400       1.9877064     0.018260762
       764.00000       292.19375       98550.033       13496.666       3.7950000       1.5665000      0.38550000       343.57900       1.9732754     0.018430861
       769.00001       292.20978       98548.031       13495.652       3.0022500       2.2827500     0.028250000       343.59300       1.9714945     0.017624469
       774.00003       292.20023       98565.856       13448.425       3.3122500      0.57300000     -0.93125000       343.45400       1.9699268     0.018971261
       779.00000       292.20034       98569.785       13417.179       3.0537500      0.24550000     -0.17825000       343.42700       1.9969182     0.019704080
       784.00001       292.20035       98549.246       13383.459       2.0895000      0.73125000      0.29375000       343.55200       1.9701172     0.020753338
       789.00003       292.20047       98547.123       13349.654       3.0367500       1.7595000    -0.024250000       343.43000       1.9938756     0.018276711
       794.00000       292.21378       98561.830       13328.112       3.1062500       1.0695000      0.22125000       343.41500       1.9607778     0.018341790
       799.00001       292.19991       98561.668       13278.732       2.1555000       1.6165000     -0.44100000       343.62200       1.9854387     0.017847958
       804.00002       292.13630       98552.679       13165.667       3.2935000       2.7385000     -0.92575000       343.48100       1.9794200     0.014342500
       809.00000       292.14401       98555.506       13151.702       1.9905000       2.3497500    -0.054500000       343.73200       1.9817262     0.014194780
       814.00001       292.19587       98561.197       13190.482       3.9235000       3.1070000     -0.52300000       343.27800       1.9918357     0.019356756
       819.00002       292.20633       98560.263       13201.277       3.4097500       4.4540000     -0.23775000       342.90400       1.9800364     0.019806595
       824.00000       292.23975       98566.908       13266.837       1.4952500       4.1015000    -0.026500000       343.54100       1.9882146     0.017956867
       829.00001       292.26586       98567.368       13310.684       3.1942500       3.7295000     -0.14250000       343.19400       2.0093415     0.021221450
       834.00002       292.24317       98549.287       13302.843       1.9860000       2.7547500      0.72450010       343.35200       2.0251019     0.015158298
       839.00000       292.24679       98547.116       13328.424       2.9545000       3.0187500     -0.43325000       343.50200       1.9873158     0.014757774
       844.00001       292.26818       98561.816       13390.524       2.4240000       1.8572500     -0.10775000       343.71300       2.0010150     0.014896044
       850.00002       292.32245       98561.206       13453.240      0.83100000       1.2735000      0.72025000       343.59200       1.9955774     0.021173864
       854.99999       292.40578       98553.027       13528.308       1.6960000       1.6475000      0.25550000       343.91900       1.9913894     0.019525187
       860.00000       292.41323       98556.337       13534.602       2.0097500       2.4560000     -0.58350000       343.15000       1.9845614     0.018657040
       865.00002       292.41353       98561.025       13502.626       2.5175000      0.53050010    -0.031750000       343.54700       1.9861102     0.014376861
       869.99999       292.40116       98560.072       13493.194       1.8600000       1.8630000     -0.44025000       343.69100       1.9645052     0.014566675
       875.00000       292.31282       98567.378       13443.136       1.6785000       1.5127500      0.43375000       343.86000       1.9890085     0.015710038
       880.00001       292.26951       98566.893       13411.891       2.2820000       2.9375000     0.090000000       343.54900       1.9726814     0.016344466
       885.00003       292.25877       98548.152       13422.329       3.0110000       2.4065000      0.10550000       343.55900       1.9604817     0.020546257
       890.00000       292.23871       98547.368       13395.638       2.6962500       1.1007500     -0.16400000       343.29300       1.9584870     0.015105539
       895.00001       292.21187       98561.995       13333.207       1.5842500       2.3252500      0.79825000       343.79000       1.9549926     0.014986899
       900.00003       292.18154       98561.109       13287.051       1.4000000       1.0750000      0.46200000       344.21400       1.9893751     0.020871144
       905.00000       292.16848       98552.855       13245.782       2.9427500       1.0907500     -0.25350000       343.87900       1.9777081     0.014280981
       910.00001       292.13240       98556.065       13201.062       2.9730000       3.5470000      0.33800000       343.62300       1.9468811     0.014898732
       915.00003       292.06988       98561.879       13149.057       3.3052500       1.1007500      0.50975000       343.50500       1.9759597     0.014883260
       920.00000       292.02052       98559.296       13105.318       3.9437500       1.0250000      0.19550000       343.69200       2.0042868     0.014182872
       925.00001       291.94794       98559.821       13035.290       3.1100000       1.7505000     -0.14475000       343.78300       1.9589975     0.014863365
       930.00003       291.93044       98562.192       13038.594       2.6967500       1.4782500     0.086250010       343.88200       1.9780459     0.018938013
       935.00000       291.95383       98555.093       13092.035       3.3217500       1.0627500      0.52825000       343.84900       1.9852341     0.021031406
       941.00001       291.94203       98552.075       13124.358       3.5135000       1.0535000      0.30475000       343.39100       1.9390323     0.017919830
       946.00002       291.94857       98562.884       13189.310       2.4762500       1.4052500     -0.35200000       343.69500       1.9622309     0.018825562
       950.99999       291.95905       98560.493       13237.725       2.6287500      0.91875000      0.15275000       343.66000       1.9721454     0.018555799
       956.00000       291.94421       98542.399       13262.010       3.6055000       1.2595000     -0.63575010       343.62400       1.9713772     0.018396711
       961.00002       291.95296       98543.691       13290.502       3.1815000      0.65550010     -0.59425000       344.05700       1.9710999     0.019426241
       965.99999       291.97572       98558.219       13328.470       4.0295000       1.0612500     -0.78925000       343.76700       1.9996162     0.016780540
       971.00000       292.04249       98553.742       13380.524       5.0650000       1.3412500     -0.88725010       343.37400       1.9660833     0.019879339
       976.00002       292.13559       98543.784       13424.632       4.8922500       1.2947500     -0.61600010       342.79100       1.9826311     0.017275911
       980.99999       292.19615       98546.489       13466.242       3.5850000       1.0755000      0.19800000       343.38300       1.9739032     0.019989772
       986.00000       292.31671       98543.898       13546.154       3.2262500       1.4162500      0.29500000       343.61000       1.9563327     0.014305079
       991.00002       292.33184       98544.603       13568.960       4.0922500       1.3932500      0.38375000       343.50100       1.9888522     0.019803507
       995.99999       292.27139       98560.768       13558.606       4.6160000       2.6595000     -0.35850000       342.77500       1.9930014     0.015297374
       1001.0000       292.21428       98566.154       13525.397       3.0132500       2.4665000     -0.70100000       343.30200       1.9333704     0.022460555
       1006.0000       292.08709       98559.012       13443.522       2.0282500      0.28975000     -0.17175000       343.43900       1.9839177     0.014427029
       1011.0000       292.07379       98560.756       13431.046       2.5680000       1.7780000      0.11175000       343.23000       1.9590372     0.019393914
       1016.0000       292.08552       98575.455       13418.971       2.8217500       1.7005000      0.41925000       343.66000       1.9790321     0.014384726
       1021.0000       292.10245       98568.486       13412.613       2.5382500       1.8930000     -0.70100000       343.71700       1.9724691     0.015505023
       1027.0000       292.20550       98542.361       13462.575       2.7032500      0.62950000     -0.29150000       343.82400       1.9762673     0.014568819
       1032.0000       292.24427       98542.995       13462.703       3.5427500       1.2767500      0.17875000       343.29900       1.9870991     0.019671914
       1037.0000       292.25018       98544.362       13423.479       4.3285000       1.0555000     -0.26500000       343.37100       2.1810876     0.015522897
       1042.0000       292.25532       98552.033       13421.823       4.6035000     0.068750000     0.093250010       343.26700       2.1556115     0.014927595
       1047.0000       292.29382       98557.563       13439.527       3.6022500      0.56875000      0.18050000       343.53600       2.7455880     0.019653036
       1052.0000       292.33044       98547.874       13464.182       4.0802500       1.0237500     -0.46600000       342.80000       2.6468855     0.023548028
       1057.0000       292.38751       98543.628       13511.080       3.0627500      0.46800000      0.77850000       343.78200       2.3447516     0.014563581
       1062.0000       292.46915       98543.076       13578.658       3.8535000      0.30775000     -0.16750000       343.60900       2.1642945     0.015106506
       1067.0000       292.61821       98551.568       13680.772       2.2155000    -0.024500000      0.43150000       344.16600       2.0273622     0.018411558
       1072.0000       292.65445       98550.273       13753.835       2.9577500      0.22525000      0.26925000       343.91100       1.9983445     0.019214129
       1077.0000       292.66219       98543.477       13844.899       2.8012500      0.60125010      0.16375000       343.80300       2.0032016     0.013983122
       1082.0000       292.61481       98558.312       13868.223       2.8850000     0.094000000      0.12500000       344.00400       2.1851159     0.019031169
       1087.0000       292.59332       98557.929       13879.117       4.2515000      0.17500000     -0.39700000       343.13500       2.5272800     0.014311297
       1092.0000       292.58519       98543.210       13845.217       4.5167500    -0.074750010      0.24900000       343.61600       2.7765541     0.014782263
       1097.0000       292.59423       98543.959       13823.643       3.6870000     -0.73275010      0.56975000       343.82700       3.0703006     0.015822707
       1102.0000       292.61528       98547.393       13789.888       2.8642500     -0.13500000      0.16475000       344.13100       3.3029344     0.018541523
       1107.0000       292.64391       98544.215       13768.662       4.5105000      0.81725000    -0.021000000       343.52700       2.7799883     0.014934521
       1112.0000       292.68489       98543.495       13754.748       2.9405000     -0.58800000      0.23725000       343.72400       2.9939054     0.014727631
       1118.0000       292.75929       98558.772       13744.526       3.6870000      0.38500000     0.091250000       343.57500       2.5360512     0.014265396
       1123.0000       292.79522       98543.946       13736.699       3.0507500      0.48200000     -0.41650000       343.57900       2.3536335     0.014062904
       1128.0000       292.85673       98542.509       13785.604       1.6845000      0.30025000    -0.079250000       344.04400       2.1955578     0.018402937
       1133.0000       292.97374       98560.461       13948.433       3.4875000       1.0907500    -0.047750000       344.20800       2.0616369     0.019026287
       1138.0000       293.02227       98563.094       14007.099       4.9427500       1.7147500     -0.34825000       343.29000       1.9871319     0.017162178
       1143.0000       293.04664       98553.982       14042.610       3.1235000      0.81225000      0.13425000       343.84500       1.9811991     0.014322071
       1148.0000       293.06394       98555.118       14068.533       2.9267500      0.90775010      0.23575000       343.68200       1.9894224     0.013769756
       1153.0000       293.00994       98560.612       14002.201       2.3007500      0.63550000     0.068750000       343.81400       2.0345837     0.014028786
       1158.0000       292.99142       98555.399       13969.750       2.2115000      0.84550010      0.17625000       343.60300       1.9537539     0.016605175
       1163.0000       292.98591       98543.207       13965.127       1.2025000       1.6332500   -0.0042500000       343.40800       1.9906841     0.014194184
       1168.0000       292.99732       98544.541       13956.695       2.2397500      0.18525000     -0.19125000       343.86600       1.9838665     0.013477397
       1173.0000       293.04879       98546.696       13952.662       3.3540000       2.7122500     0.062000000       343.39600       2.0001443     0.013731788
       1178.0000       293.05780       98544.014       13927.064       3.2280000       1.1667500      0.28450000       343.41200       1.9808502     0.013987819
       1183.0000       293.02826       98551.140       13876.898       3.2712500       1.4670000     0.074750010       343.07000       1.9753692     0.014106139
       1188.0000       293.04957       98557.855       13860.546       2.7497500       1.0737500     -0.28250000       343.30600       1.9613837     0.014556609
       1193.0000       293.07781       98553.502       13832.142       2.2762500      0.90950010     -0.80300000       343.45700       1.9752284     0.014017344
       1198.0000       293.09884       98553.876       13827.402       1.8605000       2.2447500       1.0977500       343.90500       1.9688559     0.014624852
       1203.0000       293.22501       98570.358       13910.660       1.4160000      0.84650000      0.66175000       344.98400       1.9702272     0.013951310
       1209.0000       293.22179       98573.629       13909.769       1.5357500       1.1092500     0.040500000       344.63000       1.9488981     0.021667482
       1214.0000       293.08653       98560.076       13850.317       2.8065000       1.9345000     -0.27025000       344.89600       1.9892312     0.014127472
       1219.0000       293.02651       98558.816       13820.871       4.0997500       1.0555000      0.80925010       344.79300       1.9647032     0.014744531
       1224.0000       292.88925       98565.421       13725.755       3.0990000      0.13375000     -0.19350000       344.82900       1.9638101     0.014520823
       1229.0000       292.86715       98559.384       13716.132       2.0447500      0.46275000     0.033750000       344.74700       1.9306168     0.014748403
       1234.0000       292.96320       98543.658       13780.957       2.4205000      0.70900010   -0.0015000000       345.06600       1.9520726     0.020294719
       1239.0000       293.01650       98543.735       13825.709      0.96875010     0.026250000      0.34700000       345.22800       1.9588449     0.014781343
       1244.0000       293.12729       98545.358       13915.359       3.1307500      0.32100000      0.49475000       344.31900       1.9456780     0.015329673
       1249.0000       293.17927       98543.159       13968.971       3.0480000      0.30825000    -0.020250000       344.17500       1.9796705     0.013818449
       1254.0000       293.19452       98552.464       14008.115       2.9737500    -0.050750000    -0.010750000       344.77600       1.9741811     0.021118355
       1259.0000       293.21088       98558.822       14038.830       2.6600000       1.0150000      0.30700000       344.77400       1.9664542     0.014333705
       1264.0000       293.18707       98555.816       14036.730       3.2232500       1.9102500     -0.31700000       344.82300       1.9254836     0.014972290
       1269.0000       293.20076       98554.154       14068.683       1.5722500       1.1067500      0.66675000       344.71000       2.0030219     0.013933643
       1274.0000       293.23819       98562.591       14118.934       3.2995000       1.7502500      0.43400000       343.62100       1.9706581     0.019684230
       1279.0000       293.25794       98562.038       14153.580       2.2842500       1.1035000     -0.29175000       344.81000       1.9748765     0.021066330
       1284.0000       293.30773       98543.589       14237.916       2.7857500       2.6775000       1.0207500       343.79300       1.9837095     0.014614656
       1289.0000       293.31036       98542.430       14239.947       3.8867500      0.85275010     -0.63850000       343.89200       1.9512359     0.015462621
       1294.0000       293.27612       98558.561       14181.356       3.2652500      0.98500010      0.46400000       344.51900       1.9947205     0.015131242
       1300.0000       293.23375       98554.903       14116.037       3.6135000       1.1417500   -0.0097500000       344.39800       1.9543602     0.013956074
       1305.0000       293.15936       98543.727       13988.515       2.5965000      0.24100000      0.22100000       344.85000       1.9476387     0.014414484
       1310.0000       293.12531       98546.120       13942.913       3.3060000     0.061750000      0.14025000       344.67800       1.9475366     0.019014846
       1315.0000       293.12288       98547.478       13963.805       3.2920000       1.2055000     0.041250000       343.48400       2.0302440     0.019031435
       1320.0000       293.07673       98542.478       13911.444       3.8962500      0.61475000      0.11600000       343.98100       2.3836036     0.017815948
       1325.0000       293.00441       98543.259       13828.327       4.4412500      0.71425000     -0.81625000       343.50800       2.9592181     0.018993486
       1330.0000       292.98083       98548.222       13806.237       5.5840000      0.69300000      0.20225000       343.91700       3.5165865     0.021538042
       1335.0000       292.94269       98544.708       13749.173       3.7192500     -0.38950000   -0.0087500000       343.74200       3.2491398     0.018521791
       1340.0000       292.93565       98543.035       13756.716       4.2320000     0.053500000    0.0065000000       343.78400       3.7077822     0.018785230
       1345.0000       292.98778       98557.210       13858.593       2.6505000     -0.56400000     0.054000000       343.98500       2.7899862     0.018142034
       1350.0000       293.01799       98558.122       13921.325       3.2510000      0.41350000     -0.10750000       343.45200       3.0520104     0.019848340
       1355.0000       293.03166       98537.080       13981.418       3.3742500      0.46550000      0.67150000       343.87900       3.0416018     0.018534252
       1360.0000       293.06802       98537.818       14038.011       2.3380000     -0.51400000    -0.079250000       343.81300       2.7892115     0.021255413
       1365.0000       293.14171       98556.307       14103.781       2.1990000      -1.5532500      0.26275000       343.91200       2.9832829     0.019089162
       1370.0000       293.17504       98557.374       14162.918       1.0557500     -0.53725000      0.87050000       344.89100       2.7113280     0.014523310
       1375.0000       293.21054       98554.135       14219.504       3.5407500    -0.039500000     0.095000010       343.62400       2.4450659     0.019638169
       1380.0000       293.20831       98557.142       14257.067       5.0162500     -0.35425000      0.43275000       343.38900       2.8923326     0.022955207
       1385.0000       293.15894       98558.847       14291.052       5.1517500      0.84525000     -0.31125000       343.38800       2.8093434     0.024434642
       1391.0000       293.13469       98551.077       14317.353       4.5292500       1.0480000     -0.54425000       343.14300       2.4306679     0.018908895
       1396.0000       293.11456       98543.700       14324.152       4.1320000      0.28825000      0.20475000       343.54400       3.0570361     0.020727646
       1401.0000       293.06531       98546.518       14304.583       4.5535000       1.1622500     -0.31050000       343.29800       3.2048493     0.018094261
       1406.0000       293.01540       98546.501       14275.170       2.9252500      -1.0252500    -0.072250000       344.42600       4.7493453     0.020904946
       1411.0000       292.95682       98541.498       14231.308       3.6447500     -0.95925000    -0.087250000       343.20700       3.4362516     0.015838899
       1416.0000       292.85679       98546.160       14150.782       2.2212500      -1.4757500     -0.53375000       344.28900       3.8435471     0.019690855
       1421.0000       292.79584       98547.424       14088.135       2.2265000      -1.5987500    -0.081000000       343.07300       3.2075432     0.017651137
       1426.0000       292.76101       98532.355       14033.494       2.6382500     -0.73825000      0.15375000       343.77000       3.2159300     0.015422241
       1431.0000       292.71065       98532.854       13963.185       3.3810000     -0.93750010     -0.43700000       343.20000       2.6067300     0.014241382
       1436.0000       292.64264       98551.300       13860.751       3.3880000      -1.0572500     0.072750000       343.71500       2.4813179     0.014565905
       1441.0000       292.63035       98554.776       13829.968       2.8607500      -1.3350000     -0.19175000       343.71300       2.0885907     0.015778699
       1446.0000       292.65264       98548.570       13822.062       3.7392500     -0.90600000     -0.25700000       343.14200       2.0102548     0.013688253
       1451.0000       292.64260       98552.316       13822.435       3.1210000      -2.5190000     0.055250000       343.78600       2.0206706     0.013305705
       1456.0000       292.64751       98562.048       13861.777       3.0010000      -1.2140000     0.057750000       343.54600       2.2059534     0.015468066
       1461.0000       292.65717       98560.359       13906.900       2.4920000       1.3810000     -0.12100000       343.18400       2.5099333     0.014540136
       1466.0000       292.65148       98554.587       13969.604       2.3445000      0.44625000      0.19425000       343.85000       2.3070765     0.014912384
       1471.0000       292.64123       98556.459       13994.108       2.6797500     -0.37000000      0.33800000       344.01600       2.1571494     0.018767970
       1476.0000       292.64838       98557.801       14023.755       2.4240000     -0.76325010     0.065750000       343.49000       2.0515316     0.023679833
       1482.0000       292.66012       98549.434       14069.561       2.2787500      -1.4292500      0.65800010       343.54700       2.0459796     0.014875000
       1487.0000       292.64932       98544.064       14078.858       2.2420000     -0.69600000    -0.061250000       343.62900       2.6511128     0.015093468
       1492.0000       292.65433       98550.432       14111.029       1.9042500      0.22800000     -0.37200000       344.08700       3.8823168     0.021911316
       1497.0000       292.65567       98545.508       14135.073       2.9630000     -0.80550000     -0.13850000       343.98700       4.2871022     0.018396567
       1502.0000       292.61447       98540.291       14114.803       3.0737500     -0.38700000     -0.36425000       343.96800       4.3300842     0.018803076
       1507.0000       292.59329       98545.210       14102.828       4.5615000       1.0777500      -1.2670000       343.43200       3.2423109     0.016509134
       1512.0000       292.58441       98550.128       14095.984       3.7530000      0.60550000    -0.074500000       343.59200       3.5279280     0.021504746
       1517.0000       292.60629       98543.723       14116.411       4.4682500     0.078000000     -0.81575010       344.05900       3.8411174     0.027687996
       1522.0000       292.58448       98543.101       14084.153       2.7322500      -1.4642500     -0.19425000       344.26200       3.4012989     0.015883434
       1527.0000       292.55628       98557.552       14034.006       1.3280000      0.10575000      0.27550000       344.25800       3.9466991     0.020596383
       1532.0000       292.48400       98547.800       13932.683       3.0955000      0.48600000    -0.011750000       344.26400       3.4148203     0.020050414
       1537.0000       292.44210       98543.373       13861.529       4.2975000      0.36600000     0.015000000       343.79400       2.4687129     0.020770530
       1542.0000       292.39940       98550.342       13768.661       4.6192500      0.39200000     -0.78625010       343.75400       2.0644966     0.017498905
       1547.0000       292.38722       98551.549       13724.574       3.9935000     -0.28850000     -0.24500000       343.92300       2.0173768     0.018832636
       1552.0000       292.43033       98542.873       13741.303       4.5210000      0.61750000     -0.45675000       343.47700       2.0631662     0.015242126
       1557.0000       292.45022       98543.480       13745.686       4.0535000      0.74925010      0.57850000       343.62900       2.3179541     0.020268029
       1562.0000       292.47005       98547.768       13760.991       5.0165000      0.18825000     -0.57800000       343.43900       2.3306348     0.014537066
       1567.0000       292.51304       98554.378       13812.948       3.8165000       1.1067500      0.86075000       343.96000       2.6155280     0.021700924
       1573.0000       292.46616       98567.159       13788.924       1.4042500       2.7287500      0.84150000       343.83600       2.3188475     0.018528061
       1578.0000       292.44613       98572.835       13792.414       2.6127500       3.5060000    -0.011250000       343.97900       1.9983692     0.022969869
       1583.0000       292.40999       98577.428       13801.325       3.6107500       1.6425000      0.68475000       344.46300       2.0118485     0.018268678
       1588.0000       292.39103       98571.919       13808.550       3.5350000       1.7497500     -0.36250000       344.19600       2.0406685     0.018199660
       1593.0000       292.41398       98546.040       13869.333       2.8487500       1.7747500      0.35175000       344.46400       2.0494314     0.015815201
       1598.0000       292.40273       98541.702       13860.028       4.5785000       2.6092500     0.047000000       343.40500       2.0349132     0.015553637
       1603.0000       292.36695       98549.056       13786.128       3.4200000       1.7432500     -0.21500000       343.37000       2.0357260     0.015763915
       1608.0000       292.34711       98544.048       13741.068       4.3150000       1.1295000     -0.17750000       343.59300       2.0578481     0.016637522
       1613.0000       292.32398       98541.163       13671.402       2.9455000      0.13625000      0.43400000       344.06800       2.0619156     0.013785127
       1618.0000       292.29380       98546.276       13605.660       4.4112500      0.85375010      0.32150000       343.46100       2.0067619     0.015012016
       1623.0000       292.25126       98546.696       13543.053       3.3797500       1.7957500     -0.25125000       343.43900       2.0215986     0.018403706
       1628.0000       292.24225       98544.014       13507.890       3.2365000       1.7017500     0.080000010       343.75700       2.0557762     0.013740312
       1633.0000       292.24371       98553.937       13467.063       4.1210000      0.97875010     -0.72150000       343.54200       2.0328988     0.019283821
       1638.0000       292.24515       98558.363       13448.371       5.8467500      0.92650000     -0.70750000       343.46100       2.0008654     0.018008685
       1643.0000       292.26144       98548.061       13451.888       4.1865000       3.0072500      0.27700000       343.62100       2.0332477     0.013815104
       1648.0000       292.30226       98543.322       13490.938       2.5172500       3.0175000       1.0355000       343.77700       2.0841536     0.017411185
       1653.0000       292.38101       98546.049       13582.062       4.0472500       2.0445000     0.054750000       343.78300       2.0392819     0.016372546
       1659.0000       292.41406       98545.807       13646.224       2.6182500       1.4462500     0.037500000       344.27400       2.0412067     0.017178761
       1664.0000       292.43843       98539.688       13714.699       3.4925000       2.5097500    -0.046000000       343.61400       2.0363916     0.016231874
       1669.0000       292.46520       98539.492       13781.126       6.0075000       2.2340000     -0.59925000       343.48200       2.0623702     0.015714739
       1674.0000       292.46912       98544.083       13843.154       4.0090000       3.0710000    -0.075000000       343.53800       2.0579150     0.017563821
       1679.0000       292.44554       98546.117       13859.646       4.9655000       1.9105000     -0.23350000       343.16000       2.0669171     0.016489418
       1684.0000       292.45800       98547.191       13902.244       2.8475000       2.2250000    -0.096250010       343.33100       2.0973529     0.013547432
       1689.0000       292.39364       98551.517       13864.865       2.1332500      0.82200000      0.29700000       343.78600       2.0775488     0.019041934
       1694.0000       292.19875       98561.933       13704.188       5.1275000       1.8462500     -0.22250000       343.59600       2.0292433     0.017304261
       1699.0000       292.10662       98561.812       13615.463       3.8515000    -0.073750000      0.45675000       343.68000       2.1584467     0.013525599
       1704.0000       292.00356       98553.840       13508.748       2.5885000      0.29300000      0.83650000       343.79200       2.0371054     0.019350957
       1709.0000       291.96866       98555.225       13441.644       3.0402500       1.5552500    -0.017500000       343.82300       2.0393905     0.018812925
       1714.0000       292.05129       98557.176       13432.519       5.0715000       3.3395000     0.050500000       343.20300       2.0483308     0.017526391
       1719.0000       292.05765       98554.189       13389.683       2.3492500       2.1385000      0.41750000       343.86400       2.0791471     0.014533834
       1724.0000       292.05688       98553.645       13336.036       4.5405000       3.0442500     -0.44525000       343.25700       2.0439143     0.013856500
       1729.0000       292.05286       98556.626       13298.219       3.9622500       2.1210000      -1.1910000       343.41200       2.0511240     0.014662807
       1734.0000       292.01782       98559.749       13249.653       3.4070000       3.5862500     -0.32150000       343.32600       2.0328521     0.013529952
       1739.0000       291.98796       98554.081       13222.757       1.9880000       2.6767500      0.14325000       343.59400       2.0429051     0.019279618
       1744.0000       291.96271       98543.378       13212.356       2.8857500       3.4092500     -0.57475000       343.12100       2.0585698     0.018601032
       1750.0000       291.93853       98545.727       13220.521       2.8787500       3.2112500     -0.40400000       343.22700       2.0373642     0.013939878
       1755.0000       291.89093       98545.371       13235.152       1.7532500       2.2062500      0.16825000       343.48600       2.0431467     0.018481497
       1760.0000       291.89361       98543.600       13276.178       3.5632500      0.99050000      0.13075000       343.29300       2.1127109     0.014274185
       1765.0000       291.95382       98553.979       13368.531       3.6190000       1.3217500     -0.26775000       343.47900       2.0096689     0.019881097
       1770.0000       291.95778       98559.846       13408.241       2.1302500       1.8522500      0.60675000       343.80800       2.0472847     0.014327669
       1775.0000       291.94628       98556.606       13426.705       3.2205000       2.9257500     -0.92150000       343.21500       2.0453495     0.018838797
       1780.0000       291.95624       98553.658       13472.898       1.7922500       2.6817500      0.11925000       343.61000       2.0523611     0.013677220
       1785.0000       291.96539       98557.895       13527.014       3.7395000       3.3980000     -0.48075000       343.05700       2.0523316     0.013981290
       1790.0000       291.93895       98556.007       13535.766       2.6182500       2.1312500     -0.38950000       343.31600       2.0698405     0.019521632
       1795.0000       291.90456       98537.260       13552.325       2.9825000       1.1632500    -0.046500000       343.47500       2.0508051     0.018491639
       1800.0000       291.89506       98538.021       13546.242       2.0380000      0.95650010      0.90250000       343.64300       2.0705863     0.014114339
       1805.0000       291.83221       98553.144       13458.648       3.0835000       1.7300000     -0.49600000       343.22400       2.0652897     0.013543168
       1810.0000       291.84059       98559.166       13442.777       2.4180000       2.0832500     -0.71425000       343.56200       2.0541345     0.013935576
       1815.0000       291.93067       98572.369       13462.582       2.9327500       1.9690000     -0.13900000       343.25300       2.0471162     0.013440517
       1820.0000       291.98033       98573.188       13487.292       2.4435000       2.0057500     -0.51100000       343.35400       2.0718835     0.013992611
       1825.0000       292.05218       98563.096       13556.131       1.0492500       1.0035000      0.37725000       343.84500       1.9876183     0.015633168
       1830.0000       292.06962       98557.570       13566.494       2.6927500       2.1002500     -0.28175000       343.60400       2.0259205     0.015547174
       1835.0000       292.04642       98542.988       13557.394       1.2165000      0.72875010     -0.28400000       343.56300       2.0409866     0.014226857
       1841.0000       292.05821       98544.024       13560.435       2.1180000      0.66950010      0.22625000       343.57500       2.0444183     0.013486681
       1846.0000       292.05169       98555.657       13533.212       2.9802500       1.9685000     -0.21675000       343.48600       2.0261890     0.014064518
       1851.0000       292.04127       98556.813       13516.973       2.6955000       2.3797500     -0.22550000       343.52300       2.0082249     0.021323512
       1856.0000       292.05666       98560.158       13524.365       4.2985000       1.9980000     0.081500000       343.28900       2.0678741     0.014226279
       1861.0000       292.04808       98563.335       13513.980       4.8682500       2.9697500     -0.43075000       343.22500       2.0517815     0.014087068
       1866.0000       292.00609       98561.817       13483.670       2.4695000       2.3262500      0.94425000       343.53900       2.0182384     0.015592525
       1871.0000       291.97634       98558.064       13454.600       4.7177500       3.0017500     -0.17475000       343.30000       2.0034349     0.014659663
       1876.0000       291.94548       98554.532       13416.521       3.5587500       2.7970000     -0.21600000       343.33300       2.0299426     0.014108117
       1881.0000       291.94437       98556.407       13419.365       3.0770000      0.97825000    -0.012000000       343.46800       2.0710373     0.013985893
       1886.0000       291.95214       98557.687       13429.926       3.8740000       2.9630000     0.093250010       343.29800       2.0381116     0.019339599
       1891.0000       291.94189       98550.878       13437.222       2.5702500       1.8900000      0.67200010       343.44500       2.0619520     0.014009608
       1896.0000       291.95662       98543.444       13487.378       4.4242500       2.0987500     -0.59150000       343.06600       2.0702865     0.013792727
       1901.0000       291.94800       98546.228       13493.797       3.4797500       3.3802500     -0.16050000       343.22300       2.0753424     0.014039053
       1906.0000       291.89678       98546.519       13463.766       4.3797500       3.5252500      0.10100000       343.12100       2.0225601     0.020395827
       1911.0000       291.88565       98541.694       13451.528       2.3350000       3.0082500    -0.052500000       343.33300       2.0406269     0.013936032
       1916.0000       291.90933       98544.242       13448.638       2.7797500       3.9335000     -0.10375000       342.98200       2.0447468     0.014910094
       1921.0000       291.89097       98549.207       13423.375       2.8787500       3.6027500     -0.27275000       343.11200       2.0582472     0.013804913
       1926.0000       291.85547       98546.331       13379.033       1.7312500       1.0220000      0.78525000       343.51000       2.0485447     0.013965484
       1932.0000       291.83135       98540.532       13348.631       2.3050000       1.5480000     -0.22850000       343.42900       2.0331493     0.013890564
       1937.0000       291.79427       98544.536       13312.753       3.3705000       3.1180000     0.042250000       343.15900       2.0701960     0.018676218
       1942.0000       291.79993       98554.912       13314.643       3.9572500       2.0360000      0.62875000       343.43700       2.0504244     0.019355789
       1947.0000       291.79993       98551.135       13325.137       3.8217500       3.1107500     -0.12700000       343.11700       2.0622780     0.013507913
       1952.0000       291.81491       98544.359       13376.828       3.6382500       2.8217500     0.072750000       343.19200       2.0688627     0.013592840
       1957.0000       291.80608       98550.320       13393.254       3.5617500       3.2030000     -0.41350000       343.16200       2.0096731     0.014679335
       1962.0000       291.78492       98556.296       13396.400       2.4860000       1.3020000     0.067000000       343.51300       2.0106875     0.014913343
       1967.0000       291.75076       98550.106       13389.268       4.1082500       1.5277500      -1.0832500       343.18200       2.0484897     0.014179211
       1972.0000       291.73051       98544.219       13397.550       3.0067500       1.1130000      0.26100000       343.39500       2.0326740     0.013780233
       1977.0000       291.69388       98550.192       13387.267       3.5845000       2.9997500     -0.80225000       343.19400       2.0260436     0.020208369
       1982.0000       291.68524       98556.340       13397.876       3.7225000       3.0072500    -0.073250000       342.99300       2.0360229     0.019309339
       1987.0000       291.69390       98550.408       13422.330       2.2940000      0.80075000      0.65725000       343.42000       2.0728330     0.013466351
       1992.0000       291.74554       98545.930       13470.692       3.1800000       2.6130000     -0.24100000       343.16700       2.0574839     0.013672330
       1997.0000       291.75650       98551.014       13483.794       5.4725000     0.099500010      0.24000000       342.87400       2.0648520     0.014247285
       2002.0000       291.74021       98551.948       13470.824       4.4917500       1.6120000    -0.058500000       343.12000       2.0212424     0.013572305
       2007.0000       291.75030       98544.960       13489.007       3.9525000       1.4225000      0.55575000       343.34600       2.0577708     0.013731702
       2012.0000       291.76045       98539.222       13509.833       3.9817500       1.5055000     -0.29600000       343.32600       2.0509699     0.013915144
       2017.0000       291.74976       98544.637       13514.939       3.5285000       2.2222500      0.14600000       343.11800       2.0853608     0.013328058
       2023.0000       291.72748       98551.295       13488.678       3.8632500       2.5225000     -0.16200000       343.31100       2.0570970     0.013452978
       2028.0000       291.74890       98549.317       13511.859       2.7262500       2.2900000    -0.090000000       343.30600       2.1003493     0.014061295
       2033.0000       291.79298       98556.406       13548.450       1.3940000       2.0867500      0.23500000       343.49500       2.0665110     0.012426706
       2038.0000       291.80332       98563.105       13554.452       2.5537500       1.6065000     0.052500000       343.43900       2.0572941     0.014277989
       2043.0000       291.83228       98561.608       13591.414       1.9282500      0.69125000     0.037250000       343.52600       2.0752320     0.013419385
       2048.0000       291.86057       98554.567       13620.697       1.9627500      0.87850000      0.71000000       343.69900       2.0471255     0.012916765
       2053.0000       291.85752       98543.455       13607.409       3.4610000      0.40825000    -0.040000000       343.22000       2.0415790     0.013325362
       2058.0000       291.84743       98544.724       13594.358       2.5910000      0.74300000      0.47525000       343.46500       2.0418760     0.013205934
       2063.0000       291.86989       98546.490       13606.028       2.2260000      0.98225000     -0.35350000       343.53700       2.0699466     0.014028052
       2068.0000       291.85721       98543.642       13603.207       2.9140000      0.26300000     -0.27375000       343.17200       2.0681534     0.014384114
       2073.0000       291.78887       98550.780       13568.441       4.1197500       1.2500000     -0.19475000       343.27800       2.0680298     0.013221285
       2078.0000       291.73854       98557.519       13537.762       2.8935000       1.5695000      0.15500000       343.23600       2.0456222     0.013517099
       2083.0000       291.67556       98557.625       13513.832       3.6275000      0.91675000      0.12550000       343.47600       2.0275689     0.013894385
       2088.0000       291.63735       98554.624       13488.770       2.7450000      0.89350000    -0.030250000       343.54400       2.0367432     0.013023082
       2093.0000       291.59526       98552.936       13436.975       2.1205000      0.99325010    -0.042250000       343.60700       2.0616476     0.012831888
       2098.0000       291.58748       98555.938       13416.253       4.1020000       2.3810000     -0.15775000       343.26200       2.0558433     0.013819502
       2103.0000       291.63378       98557.560       13426.581       4.0797500       1.1090000     -0.16225000       343.34300       2.0450486     0.014401925
       2108.0000       291.65412       98554.533       13424.660      0.76500000       1.8180000      0.50600000       343.35300       2.0750715     0.013130488
       2114.0000       291.68169       98553.424       13424.686       3.7452500       1.4517500     -0.29525000       343.26900       2.0459996     0.014665237
       2119.0000       291.71186       98556.465       13438.204       2.3435000       2.3477500      0.20175000       343.14400       2.0601601     0.014386246
       2124.0000       291.75156       98557.271       13462.819       2.9770000       3.3157500     -0.24650000       343.24500       2.0325677     0.013470146
       2129.0000       291.75826       98554.324       13471.327       3.4012500       1.3722500     0.043250000       343.31100       2.0687024     0.013238800
       2134.0000       291.75703       98553.589       13483.924       1.9665000       1.4742500     -0.15400000       343.40800       2.0461220     0.013354189
       2139.0000       291.75322       98556.571       13495.222       1.4205000       1.5672500    -0.095250000       343.45200       2.0543500     0.013554610
       2144.0000       291.71849       98556.927       13501.335       1.8520000       2.0622500      0.46925000       343.21600       2.0304209     0.014530889
       2149.0000       291.68850       98553.908       13489.053       2.9267500       2.1280000     -0.49325000       343.08200       2.0255239     0.014242200
       2154.0000       291.63636       98553.489       13447.813       2.1012500       1.2987500      0.19625000       343.38700       2.0508787     0.013984219
       2159.0000       291.64402       98556.593       13456.741       2.0950000       2.3287500      0.63300000       343.38000       2.0456539     0.014184906
       2164.0000       291.69529       98557.278       13490.166       3.2275000       1.0490000      0.51350000       343.29100       2.0481741     0.013880449
       2169.0000       291.70536       98554.309       13492.511       3.3132500       1.7532500     -0.53100000       343.32100       2.0682141     0.013407593
       2174.0000       291.75272       98553.521       13533.250       2.1272500      0.63600000     -0.11100000       343.54900       2.0589211     0.012904749
       2179.0000       291.76514       98556.525       13532.919       1.9765000      0.43025000     -0.31950000       343.47300       2.0417703     0.014359051
       2184.0000       291.71830       98559.700       13470.452      0.83950010       1.0245000       1.3720000       343.60900       2.0554859     0.013166865
       2189.0000       291.68855       98553.973       13430.377       2.8102500      0.50875000      0.32275000       343.47300       2.0652086     0.013315212
       2194.0000       291.64929       98543.511       13382.209       2.1752500       1.7377500    -0.099750000       343.36400       2.0242702     0.013975522
       2199.0000       291.64292       98545.244       13358.771       3.1885000       1.5340000     -0.60275000       343.14800       2.0679915     0.013626405
       2205.0000       291.64315       98547.295       13333.559       2.2065000       2.1840000     -0.13300000       343.19600       2.0572047     0.014083436
       2210.0000       291.64938       98542.226       13331.167       2.5145000      0.58575000     -0.15575000       343.48000       2.0615393     0.013739318
       2215.0000       291.69968       98543.054       13365.646       2.3437500       1.4582500      0.45250000       343.61500       2.0917317     0.015585060
       2220.0000       291.71380       98548.010       13378.783       3.3555000       1.4770000     -0.16175000       343.16200       2.0675579     0.013176546
       2225.0000       291.68896       98547.132       13380.183       3.2767500      0.80625000    -0.054750000       343.15900       2.0941852     0.012904972
       2230.0000       291.70513       98542.111       13402.078       1.8850000      0.75250010     -0.12175000       343.61400       2.0777069     0.012342293
       2235.0000       291.75307       98543.462       13440.396       3.9110000      0.57000010     -0.13525000       343.17100       2.0645812     0.012767497
       2240.0000       291.75683       98548.415       13457.001       3.6812500      0.13800000     -0.42650000       343.33600       2.0762758     0.013534992
       2245.0000       291.74649       98547.255       13460.630       3.6782500       1.1765000    -0.056500000       343.23500       2.0494104     0.014700355
       2250.0000       291.75696       98542.186       13498.417       3.1140000       1.2712500     -0.32900000       343.16600       2.0237516     0.014861159
       2255.0000       291.75400       98543.034       13551.807       2.8692500       1.2915000      0.16925000       343.47300       2.0823827     0.013383166
       2260.0000       291.74389       98548.018       13573.240       2.3142500      0.69975000     -0.57075000       343.41900       2.0790493     0.013106174
       2265.0000       291.74604       98547.127       13607.168       2.6082500      0.72775010     -0.25875000       343.18200       2.1016897     0.013187090
       2270.0000       291.75582       98542.134       13632.877       2.3020000       1.0527500      0.29025000       343.35300       2.0956106     0.012964760
       2275.0000       291.74292       98543.109       13620.745       2.4945000       1.1655000     -0.29250000       343.13000       2.0910361     0.011996838
       2280.0000       291.74915       98548.028       13624.954       2.3227500      0.90700010      0.10475000       343.45400       2.0893499     0.012669066
       2285.0000       291.78785       98547.081       13647.528       2.4010000       1.1232500      0.43875000       343.56200       2.0781619     0.013058903
       2291.0000       291.82410       98541.129       13674.367       2.9890000       1.1395000     -0.38025000       343.14200       2.0804619     0.012819311
       2296.0000       291.83723       98544.187       13676.939       2.0860000       1.1530000      0.32925000       343.11200       2.0855470     0.012595402
       2301.0000       291.87618       98549.316       13707.470       2.5507500       1.1787500      0.39600000       343.28600       2.0068747     0.015522300
       2306.0000       291.95937       98544.941       13783.752       2.8460000       1.7550000     -0.26225000       343.16700       2.0689506     0.012600535
       2311.0000       291.97221       98543.724       13795.152       2.7420000       1.0890000     -0.18000000       343.28900       2.0379326     0.013991772
       2316.0000       291.94848       98555.292       13774.770       1.5177500      0.68675010   -0.0052500000       343.49300       2.0623944     0.013271661
       2321.0000       291.95855       98560.514       13778.609       1.9427500       1.0567500    -0.023000000       343.59100       2.1036669     0.013048439
       2326.0000       291.95176       98555.770       13767.427       1.6520000      0.92775010     -0.15725000       343.54700       2.1245780     0.014076196
       2331.0000       291.94195       98552.815       13750.416       1.3752500    0.0095000010      0.53950000       343.60200       2.0952465     0.012535720
       2336.0000       291.95661       98554.727       13742.346       2.1380000       1.5692500      0.40300000       343.66600       2.0912162     0.012722660
       2341.0000       291.94801       98557.842       13735.898       2.5625000       1.1877500      0.38225000       343.61700       2.1058173     0.013651925
       2346.0000       291.89631       98555.990       13706.486       3.1512500       1.1420000     -0.23575000       343.20000       2.0791188     0.012959976
       2351.0000       291.88483       98552.975       13694.975       2.8200000     -0.36600000     -0.26250000       343.58100       2.0759670     0.012380992
       2356.0000       291.89173       98556.505       13709.731       3.1235000       1.0760000     -0.22225000       343.18300       2.0783209     0.012312381
       2361.0000       291.91064       98555.735       13709.693       3.0062500       1.5680000     0.050000000       343.09100       2.1774175     0.018453199
       2366.0000       291.95479       98543.922       13704.173       3.1007500       1.6155000     -0.29550000       343.28200       2.1019807     0.012844677
       2371.0000       291.95617       98542.496       13682.792       3.9197500       1.3635000     -0.15200000       343.10000       2.1137972     0.012420311
       2376.0000       291.98585       98550.640       13671.863       2.8205000      0.45975000   -0.0092500000       343.40700       2.0872297     0.013023334
       2382.0000       291.90035       98551.869       13606.180       3.8427500       1.8905000     -0.64400010       342.81700       2.0751711     0.012408346
       2387.0000       291.75020       98550.544       13511.912       2.7755000       1.1415000      0.27950000       343.09800       2.1116998     0.013154706
       2392.0000       291.61446       98547.334       13427.218       2.9497500       1.8710000    -0.048000000       343.07200       2.1473472     0.013466213
       2397.0000       291.52941       98549.105       13365.406       3.3125000       1.5115000     -0.13825000       342.96400       2.0924208     0.011956523
       2402.0000       291.49982       98556.492       13309.933       2.4867500      0.41675000     -0.21925000       343.15100       2.0870178     0.011572126
       2407.0000       291.48742       98560.522       13285.565       2.0690000      0.40300000     -0.16525000       343.35500       2.1008947     0.012134618
       2412.0000       291.49955       98564.551       13284.625       3.5040000       1.4602500     0.056500000       342.94100       2.0545101     0.012795737
       2417.0000       291.54966       98573.595       13307.227       2.2292500     0.051750000     -0.10450000       343.21000       2.0690935     0.012808363
       2422.0000       291.57011       98568.882       13340.481       2.8012500      0.86075000      0.40650000       343.29800       2.0886301     0.011895596
       2427.0000       291.60584       98553.452       13409.169       1.5160000      0.52400000      0.44100000       343.51100       2.1026393     0.012234460
       2432.0000       291.60004       98561.370       13422.638       2.2572500      0.80150000      0.25425000       343.33100       2.0919543     0.012111270
       2437.0000       291.60004       98556.734       13458.229      0.88975010       1.3822500      0.19900000       343.43500       2.0981082     0.012946014
       2442.0000       291.58485       98543.210       13484.022       2.2350000      0.93975000      0.68350010       343.56000       2.0829433     0.012198012
       2447.0000       291.59352       98543.959       13530.125       1.9717500       1.0445000     -0.19500000       343.54400       2.0824500     0.012191946
       2452.0000       291.62999       98550.210       13650.949       1.4670000       2.0062500      0.63775000       343.84800       2.1154914     0.012668720
       2457.0000       291.64978       98545.208       13706.940       3.5845000       2.2540000      0.23650000       343.32200       2.0487598     0.013700658
       2462.0000       291.66957       98540.221       13735.691       2.9482500       1.3235000     -0.17225000       343.43900       2.0398722     0.013878857
       2467.0000       291.69986       98545.832       13747.577       1.7180000      0.89925000      0.64750000       343.32700       2.0680907     0.012432645
       2473.0000       291.73379       98549.425       13717.170       1.9540000       1.0822500      0.68475000       343.44900       2.1184846     0.011494627
       2478.0000       291.75388       98544.344       13697.415       2.3007500      0.92825000     -0.21800000       343.37000       2.1140104     0.012930406
       2483.0000       291.77587       98541.029       13672.105       1.8440000      0.85850010      0.41425000       343.51400       2.0872982     0.011936243
       2488.0000       291.80590       98545.973       13673.565       1.9710000      0.77425000      0.21450000       343.69500       2.1069993     0.012234980
       2493.0000       291.81996       98549.168       13688.728       1.8187500       1.6052500     -0.39625000       343.13700       2.1115000     0.013265403
       2498.0000       291.85089       98544.170       13698.186       2.2157500      0.83150010      0.15600000       343.13200       2.1099561     0.014004770
       2503.0000       291.93860       98541.782       13756.422       2.0902500       1.5285000      0.32025000       343.07800       2.1084285     0.012818231
       2508.0000       291.96579       98546.887       13765.507       1.6472500       1.5312500      0.28050000       343.10200       2.1063419     0.013350487
       2513.0000       291.95609       98546.684       13712.357       1.3710000      0.79900000      0.49950000       343.42100       2.0906778     0.012708222
       2518.0000       291.95494       98543.950       13702.443       1.9747500      0.96125010     -0.20550000       343.16700       2.0921570     0.012768586
       2523.0000       291.92352       98553.594       13703.820       1.2325000       1.1782500     -0.44650000       343.35300       2.0666643     0.012945300
       2528.0000       291.89341       98558.087       13693.227       1.0812500      0.38625000      0.34825000       343.66700       2.0918564     0.013083070
       2533.0000       291.85168       98546.585       13691.097       1.5667500      0.15125000      0.68125000       343.54900       2.0774895     0.012814222
       2538.0000       291.84310       98543.031       13701.070       1.7462500       1.3287500     -0.10600000       343.30600       2.0965138     0.014172853
       2543.0000       291.85781       98549.391       13718.156       1.6957500      0.43875000      0.10100000       343.46300       2.0727910     0.013594635
       2548.0000       291.84774       98551.270       13710.838       1.7310000       1.2665000      0.13975000       343.26000       2.0666825     0.012062822
       2553.0000       291.84260       98550.500       13702.947       1.2230000      0.43475000      0.36150000       343.41900       2.0974633     0.012376909
       2558.0000       291.85269       98550.598       13702.119       2.5397500      0.41175000     -0.14750000       343.01500       2.0776122     0.013234315
       2564.0000       291.84373       98551.582       13666.341       1.7812500       1.2570000      0.35175000       343.50900       2.1210165     0.015701134
       2569.0000       291.84745       98550.209       13657.051       3.6125000       1.0182500     -0.20200000       343.08100       2.0671698     0.013451457
       2574.0000       291.89498       98542.429       13667.571       2.4840000      0.80000000      0.12625000       343.61200       2.0776738     0.014000310
       2579.0000       291.91137       98544.457       13692.410       2.1445000       1.0860000      0.37175000       343.78700       2.0563344     0.012471803
